STUDYID,USUBJID,SUBJID,SITEID,SITEGR1,ARM,TRT01P,TRT01PN,TRT01A,TRT01AN,TRTSDT,TRTEDT,TRTDURD,AVGDD,CUMDOSE,AGE,AGEGR1,AGEGR1N,AGEU,RACE,RACEN,SEX,ETHNIC,SAFFL,ITTFL,EFFFL,COMP8FL,COMP16FL,COMP24FL,DISCONFL,DSRAEFL,DTHFL,BMIBL,BMIBLGR1,HEIGHTBL,WEIGHTBL,EDUCLVL,DISONSDT,DURDIS,DURDSGR1,VISIT1DT,RFSTDTC,RFENDTC,VISNUMEN,RFENDT,DCDECOD,EOSSTT,DCSREAS,MMSETOT
CDISCPILOT01,01-701-1015,1015,701,701,Placebo,Placebo,0,Placebo,0,02JAN2014,02JUL2014,182,0,0,63,<65,1,YEARS,WHITE,6,F,HISPANIC OR LATINO,Y,Y,Y,Y,Y,Y,,,,25.1,25-<30,147.3,54.4,16,30APR2010,44,>=12,26DEC2013,2014-01-02,2014-07-02,12,02JUL2014,COMPLETED,COMPLETED,,23
CDISCPILOT01,01-701-1023,1023,701,701,Placebo,Placebo,0,Placebo,0,05AUG2012,01SEP2012,28,0,0,64,<65,1,YEARS,WHITE,6,M,HISPANIC OR LATINO,Y,Y,Y,N,N,N,Y,Y,,30.4,>=30,162.6,80.3,14,11MAR2006,76,>=12,22JUL2012,2012-08-05,2012-09-02,5,02SEP2012,ADVERSE EVENT,DISCONTINUED,Adverse Event,23
CDISCPILOT01,01-701-1028,1028,701,701,Xanomeline High Dose,Xanomeline High Dose,81,Xanomeline High Dose,81,19JUL2013,14JAN2014,180,77.7,13986,71,65-80,2,YEARS,WHITE,6,M,NOT HISPANIC OR LATINO,Y,Y,Y,Y,Y,Y,,,,31.4,>=30,177.8,99.3,16,16DEC2009,43,>=12,11JUL2013,2013-07-19,2014-01-14,12,14JAN2014,COMPLETED,COMPLETED,,23
CDISCPILOT01,01-701-1033,1033,701,701,Xanomeline Low Dose,Xanomeline Low Dose,54,Xanomeline Low Dose,54,18MAR2014,31MAR2014,14,54,756,74,65-80,2,YEARS,WHITE,6,M,NOT HISPANIC OR LATINO,Y,Y,Y,N,N,N,Y,,,28.8,25-<30,175.3,88.5,12,02AUG2009,55,>=12,10MAR2014,2014-03-18,2014-04-14,5,14APR2014,STUDY TERMINATED BY SPONSOR,DISCONTINUED,Sponsor Decision,23
CDISCPILOT01,01-701-1034,1034,701,701,Xanomeline High Dose,Xanomeline High Dose,81,Xanomeline High Dose,81,01JUL2014,30DEC2014,183,76.9,14067,77,65-80,2,YEARS,WHITE,6,F,NOT HISPANIC OR LATINO,Y,Y,Y,Y,Y,Y,,,,26.1,25-<30,154.9,62.6,9,29SEP2011,33,>=12,24JUN2014,2014-07-01,2014-12-30,12,30DEC2014,COMPLETED,COMPLETED,,21
CDISCPILOT01,01-701-1047,1047,701,701,Placebo,Placebo,0,Placebo,0,12FEB2013,09MAR2013,26,0,0,85,>80,3,YEARS,WHITE,6,F,NOT HISPANIC OR LATINO,Y,Y,Y,N,N,N,Y,Y,,30.4,>=30,148.6,67.1,8,26JUL2009,42,>=12,22JAN2013,2013-02-12,2013-03-29,6,29MAR2013,ADVERSE EVENT,DISCONTINUED,Adverse Event,23
CDISCPILOT01,01-701-1097,1097,701,701,Xanomeline Low Dose,Xanomeline Low Dose,54,Xanomeline Low Dose,54,01JAN2014,09JUL2014,190,54,10260,68,65-80,2,YEARS,WHITE,6,M,NOT HISPANIC OR LATINO,Y,Y,Y,Y,Y,Y,,,,27.3,25-<30,168.9,78,18,22SEP2005,99,>=12,23DEC2013,2014-01-01,2014-07-09,12,09JUL2014,COMPLETED,COMPLETED,,10
CDISCPILOT01,01-701-1111,1111,701,701,Xanomeline Low Dose,Xanomeline Low Dose,54,Xanomeline Low Dose,54,07SEP2012,16SEP2012,10,54,540,81,>80,3,YEARS,WHITE,6,F,NOT HISPANIC OR LATINO,Y,Y,Y,N,N,N,Y,Y,,23.9,<25,158.2,59.9,22,04APR2009,40,>=12,25AUG2012,2012-09-07,2012-09-17,4,17SEP2012,ADVERSE EVENT,DISCONTINUED,Adverse Event,23
CDISCPILOT01,01-701-1115,1115,701,701,Xanomeline Low Dose,Xanomeline Low Dose,54,Xanomeline Low Dose,54,30NOV2012,23JAN2013,55,54,2970,84,>80,3,YEARS,WHITE,6,M,NOT HISPANIC OR LATINO,Y,Y,Y,Y,N,N,Y,Y,,23.9,<25,181.6,78.9,12,28MAY2004,102,>=12,23NOV2012,2012-11-30,2013-01-23,8,23JAN2013,ADVERSE EVENT,DISCONTINUED,Adverse Event,20
CDISCPILOT01,01-701-1118,1118,701,701,Placebo,Placebo,0,Placebo,0,12MAR2014,09SEP2014,182,0,0,52,<65,1,YEARS,WHITE,6,M,NOT HISPANIC OR LATINO,Y,Y,Y,Y,Y,Y,,,,21.9,<25,180.3,71.2,14,24JUN2010,44,>=12,27FEB2014,2014-03-12,2014-09-09,12,09SEP2014,COMPLETED,COMPLETED,,20
CDISCPILOT01,01-701-1130,1130,701,701,Placebo,Placebo,0,Placebo,0,15FEB2014,16AUG2014,183,0,0,84,>80,3,YEARS,WHITE,6,M,NOT HISPANIC OR LATINO,Y,Y,Y,Y,Y,Y,,,,27.6,25-<30,169.7,79.4,12,22MAY2010,45,>=12,09FEB2014,2014-02-15,2014-08-16,12,16AUG2014,COMPLETED,COMPLETED,,19
CDISCPILOT01,01-701-1133,1133,701,701,Xanomeline High Dose,Xanomeline High Dose,81,Xanomeline High Dose,81,28OCT2012,28APR2013,183,77.2,14121,81,>80,3,YEARS,WHITE,6,F,NOT HISPANIC OR LATINO,Y,Y,Y,Y,Y,Y,,,,28.1,25-<30,162.6,74.4,10,11MAR2010,31,>=12,23OCT2012,2012-10-28,2013-04-29,12,29APR2013,COMPLETED,COMPLETED,,21
CDISCPILOT01,01-701-1146,1146,701,701,Xanomeline High Dose,Xanomeline High Dose,81,Xanomeline High Dose,81,20MAY2013,26JUN2013,38,70.3,2673,75,65-80,2,YEARS,WHITE,6,F,NOT HISPANIC OR LATINO,Y,Y,Y,N,N,N,Y,Y,,24.9,<25,147.3,54,16,17NOV2009,42,>=12,07MAY2013,2013-05-20,2013-06-30,7,30JUN2013,ADVERSE EVENT,DISCONTINUED,Adverse Event,22
CDISCPILOT01,01-701-1148,1148,701,701,Xanomeline High Dose,Xanomeline High Dose,81,Xanomeline High Dose,81,23AUG2013,20FEB2014,182,77.1,14040,57,<65,1,YEARS,WHITE,6,M,NOT HISPANIC OR LATINO,Y,Y,Y,Y,Y,Y,,,,28.3,25-<30,175.3,87.1,15,12DEC2010,32,>=12,14AUG2013,2013-08-23,2014-02-20,12,20FEB2014,COMPLETED,COMPLETED,,21
CDISCPILOT01,01-701-1153,1153,701,701,Placebo,Placebo,0,Placebo,0,23SEP2013,16MAR2014,175,0,0,79,65-80,2,YEARS,WHITE,6,F,NOT HISPANIC OR LATINO,Y,Y,Y,Y,Y,Y,,,,23.8,<25,156.2,58.1,6,13MAY2005,100,>=12,06SEP2013,2013-09-23,2014-04-01,12,01APR2014,COMPLETED,COMPLETED,,10
CDISCPILOT01,01-701-1180,1180,701,701,Xanomeline High Dose,Xanomeline High Dose,81,Xanomeline High Dose,81,12FEB2013,18MAR2013,35,70.2,2457,56,<65,1,YEARS,WHITE,6,M,NOT HISPANIC OR LATINO,Y,Y,Y,N,N,N,Y,Y,,27.6,25-<30,180.3,89.8,16,21SEP2008,52,>=12,28JAN2013,2013-02-12,2013-03-23,7,23MAR2013,ADVERSE EVENT,DISCONTINUED,Adverse Event,19
CDISCPILOT01,01-701-1181,1181,701,701,Xanomeline High Dose,Xanomeline High Dose,81,Xanomeline High Dose,81,05DEC2013,09DEC2013,5,54,270,79,65-80,2,YEARS,WHITE,6,F,NOT HISPANIC OR LATINO,Y,Y,Y,N,N,N,Y,Y,,27.8,25-<30,154.9,66.7,15,26AUG2008,63,>=12,26NOV2013,2013-12-05,2013-12-12,4,12DEC2013,ADVERSE EVENT,DISCONTINUED,Adverse Event,10
CDISCPILOT01,01-701-1188,1188,701,701,Xanomeline Low Dose,Xanomeline Low Dose,54,Xanomeline Low Dose,54,15FEB2013,24MAR2013,38,54,2052,71,65-80,2,YEARS,WHITE,6,M,NOT HISPANIC OR LATINO,Y,Y,Y,N,N,N,Y,Y,,32.0,>=30,177.8,101.2,16,14SEP2005,89,>=12,03FEB2013,2013-02-15,2013-03-25,7,25MAR2013,ADVERSE EVENT,DISCONTINUED,Adverse Event,23
CDISCPILOT01,01-701-1192,1192,701,701,Xanomeline Low Dose,Xanomeline Low Dose,54,Xanomeline Low Dose,54,22JUL2012,20JAN2013,183,54,9882,80,65-80,2,YEARS,WHITE,6,F,NOT HISPANIC OR LATINO,Y,Y,Y,Y,Y,Y,,,,27.8,25-<30,151.1,63.5,12,15MAR2009,40,>=12,08JUL2012,2012-07-22,2013-01-20,12,20JAN2013,COMPLETED,COMPLETED,,23
CDISCPILOT01,01-701-1203,1203,701,701,Placebo,Placebo,0,Placebo,0,02FEB2013,03AUG2013,183,0,0,81,>80,3,YEARS,BLACK OR AFRICAN AMERICAN,3,F,NOT HISPANIC OR LATINO,Y,Y,Y,Y,Y,Y,,,,25.9,25-<30,160,66.2,13,19APR2011,21,>=12,25JAN2013,2013-02-02,2013-08-03,12,03AUG2013,COMPLETED,COMPLETED,,21
CDISCPILOT01,01-701-1211,1211,701,701,Xanomeline Low Dose,Xanomeline Low Dose,54,Xanomeline Low Dose,54,15NOV2012,12JAN2013,59,54,3186,76,65-80,2,YEARS,WHITE,6,F,NOT HISPANIC OR LATINO,Y,Y,Y,Y,N,N,Y,,Y,17.7,<25,160,45.4,12,19MAR2010,31,>=12,30OCT2012,2012-11-15,2013-01-14,9,14JAN2013,DEATH,DISCONTINUED,Death,12
CDISCPILOT01,01-701-1234,1234,701,701,Placebo,Placebo,0,Placebo,0,30MAR2013,22SEP2013,177,0,0,69,65-80,2,YEARS,WHITE,6,M,NOT HISPANIC OR LATINO,Y,Y,Y,Y,Y,Y,,,,23.4,<25,181.6,77.1,18,11AUG2006,79,>=12,20MAR2013,2013-03-30,2013-09-22,12,22SEP2013,COMPLETED,COMPLETED,,20
CDISCPILOT01,01-701-1239,1239,701,701,Xanomeline High Dose,Xanomeline High Dose,81,Xanomeline High Dose,81,11JAN2014,10JUL2014,181,76.8,13905,56,<65,1,YEARS,WHITE,6,M,HISPANIC OR LATINO,Y,Y,Y,Y,Y,Y,,,,33.6,>=30,168.9,95.9,11,23SEP2003,123,>=12,28DEC2013,2014-01-11,2014-07-11,12,11JUL2014,COMPLETED,COMPLETED,,23
CDISCPILOT01,01-701-1275,1275,701,701,Xanomeline High Dose,Xanomeline High Dose,81,Xanomeline High Dose,81,07FEB2014,31MAY2014,114,77.2,8802,61,<65,1,YEARS,AMERICAN INDIAN OR ALASKA NATIVE,1,M,NOT HISPANIC OR LATINO,Y,Y,Y,Y,Y,N,Y,,,24.6,<25,167.6,69,12,17SEP2011,28,>=12,25JAN2014,2014-02-07,2014-06-14,10,14JUN2014,WITHDRAWAL BY SUBJECT,DISCONTINUED,Withdrew Consent,22
CDISCPILOT01,01-701-1287,1287,701,701,Xanomeline High Dose,Xanomeline High Dose,81,Xanomeline High Dose,81,25JAN2014,26JUL2014,183,76.3,13959,56,<65,1,YEARS,WHITE,6,F,HISPANIC OR LATINO,Y,Y,Y,Y,Y,Y,,,,23.5,<25,154.9,56.3,14,30OCT2009,51,>=12,17JAN2014,2014-01-25,2014-07-26,12,26JUL2014,COMPLETED,COMPLETED,,22
CDISCPILOT01,01-701-1294,1294,701,701,Xanomeline Low Dose,Xanomeline Low Dose,54,Xanomeline Low Dose,54,24MAR2013,14JUN2013,83,54,4482,67,65-80,2,YEARS,WHITE,6,M,NOT HISPANIC OR LATINO,Y,Y,Y,Y,N,N,Y,Y,,27.1,25-<30,170.2,78.5,16,09SEP2011,18,>=12,17MAR2013,2013-03-24,2013-06-14,9,14JUN2013,ADVERSE EVENT,DISCONTINUED,Adverse Event,23
CDISCPILOT01,01-701-1302,1302,701,701,Xanomeline High Dose,Xanomeline High Dose,81,Xanomeline High Dose,81,29AUG2013,05NOV2013,69,74,5103,61,<65,1,YEARS,WHITE,6,M,NOT HISPANIC OR LATINO,Y,Y,Y,Y,N,N,Y,Y,,26.0,25-<30,177.8,82.1,15,09FEB2007,78,>=12,20AUG2013,2013-08-29,2013-11-05,9,05NOV2013,ADVERSE EVENT,DISCONTINUED,Adverse Event,23
CDISCPILOT01,01-701-1317,1317,701,701,Xanomeline Low Dose,Xanomeline Low Dose,54,Xanomeline Low Dose,54,22MAY2014,20NOV2014,183,54,9882,68,65-80,2,YEARS,WHITE,6,M,NOT HISPANIC OR LATINO,Y,Y,Y,Y,Y,Y,,,,21.4,<25,176.5,66.7,20,16SEP2013,8,<12,10MAY2014,2014-05-22,2014-11-20,12,20NOV2014,COMPLETED,COMPLETED,,20
CDISCPILOT01,01-701-1324,1324,701,701,Xanomeline Low Dose,Xanomeline Low Dose,54,Xanomeline Low Dose,54,02OCT2012,02APR2013,183,54,9882,79,65-80,2,YEARS,WHITE,6,M,NOT HISPANIC OR LATINO,Y,Y,Y,Y,Y,Y,,,,27.8,25-<30,166.4,77.1,18,11OCT2009,35,>=12,16SEP2012,2012-10-02,2013-04-02,12,02APR2013,COMPLETED,COMPLETED,,23
CDISCPILOT01,01-701-1341,1341,701,701,Xanomeline Low Dose,Xanomeline Low Dose,54,Xanomeline Low Dose,54,05JAN2013,26JAN2013,22,54,1188,51,<65,1,YEARS,WHITE,6,M,NOT HISPANIC OR LATINO,Y,Y,Y,N,N,N,Y,Y,,28.5,25-<30,157.5,70.8,24,05JUN2006,78,>=12,22DEC2012,2013-01-05,2013-02-07,5,07FEB2013,ADVERSE EVENT,DISCONTINUED,Adverse Event,23
CDISCPILOT01,01-701-1345,1345,701,701,Placebo,Placebo,0,Placebo,0,08OCT2013,18MAR2014,162,0,0,63,<65,1,YEARS,WHITE,6,F,NOT HISPANIC OR LATINO,Y,Y,Y,Y,Y,Y,Y,,,18.6,<25,174,56.3,15,05NOV2010,35,>=12,01OCT2013,2013-10-08,2014-03-18,12,18MAR2014,STUDY TERMINATED BY SPONSOR,DISCONTINUED,Sponsor Decision,23
CDISCPILOT01,01-701-1360,1360,701,701,Xanomeline High Dose,Xanomeline High Dose,81,Xanomeline High Dose,81,31JUL2013,05AUG2013,6,54,324,67,65-80,2,YEARS,WHITE,6,M,NOT HISPANIC OR LATINO,Y,Y,Y,N,N,N,Y,,,29.0,25-<30,166.4,80.3,10,02DEC2008,55,>=12,24JUL2013,2013-07-31,2013-08-14,4,14AUG2013,PHYSICIAN DECISION,DISCONTINUED,Physician Decision,23
CDISCPILOT01,01-701-1363,1363,701,701,Placebo,Placebo,0,Placebo,0,30MAY2013,27NOV2013,182,0,0,81,>80,3,YEARS,BLACK OR AFRICAN AMERICAN,3,F,NOT HISPANIC OR LATINO,Y,Y,Y,Y,Y,Y,,,,24.9,<25,161.3,64.9,13,20OCT2005,91,>=12,20MAY2013,2013-05-30,2013-11-27,12,27NOV2013,COMPLETED,COMPLETED,,22
CDISCPILOT01,01-701-1383,1383,701,701,Xanomeline High Dose,Xanomeline High Dose,81,Xanomeline High Dose,81,04FEB2013,06AUG2013,184,77.6,14283,72,65-80,2,YEARS,WHITE,6,F,NOT HISPANIC OR LATINO,Y,Y,Y,Y,Y,Y,,,,31.6,>=30,163.8,84.8,12,20AUG2006,77,>=12,22JAN2013,2013-02-04,2013-08-06,12,06AUG2013,COMPLETED,COMPLETED,,22
CDISCPILOT01,01-701-1387,1387,701,701,Placebo,Placebo,0,Placebo,0,12MAR2014,25MAR2014,14,0,0,87,>80,3,YEARS,WHITE,6,F,NOT HISPANIC OR LATINO,Y,Y,Y,N,N,N,Y,,,22.5,<25,162.6,59.4,12,17AUG2003,126,>=12,23FEB2014,2014-03-12,2014-03-25,4,25MAR2014,PROTOCOL VIOLATION,DISCONTINUED,Protocol Violation,11
CDISCPILOT01,01-701-1392,1392,701,701,Placebo,Placebo,0,Placebo,0,28OCT2012,28APR2013,183,0,0,78,65-80,2,YEARS,WHITE,6,M,NOT HISPANIC OR LATINO,Y,Y,Y,Y,Y,Y,,,,28.9,25-<30,167.6,81.2,16,25APR2010,30,>=12,17OCT2012,2012-10-28,2013-04-28,12,28APR2013,COMPLETED,COMPLETED,,23
CDISCPILOT01,01-701-1415,1415,701,701,Placebo,Placebo,0,Placebo,0,23SEP2013,24MAR2014,183,0,0,85,>80,3,YEARS,WHITE,6,M,NOT HISPANIC OR LATINO,Y,Y,Y,Y,Y,Y,,,,25.0,25-<30,175.3,76.7,10,13JUN1998,183,>=12,15SEP2013,2013-09-23,2014-03-24,12,24MAR2014,COMPLETED,COMPLETED,,18
CDISCPILOT01,01-701-1429,1429,701,701,Xanomeline Low Dose,Xanomeline Low Dose,54,Xanomeline Low Dose,54,19MAR2013,30APR2013,43,54,2322,84,>80,3,YEARS,WHITE,6,F,NOT HISPANIC OR LATINO,Y,Y,Y,N,N,N,Y,,,25.7,25-<30,148.6,56.7,12,17JUN2008,56,>=12,25FEB2013,2013-03-19,2013-04-30,7,30APR2013,WITHDRAWAL BY SUBJECT,DISCONTINUED,Withdrew Consent,17
CDISCPILOT01,01-701-1440,1440,701,701,Placebo,Placebo,0,Placebo,0,08AUG2013,05FEB2014,182,0,0,70,65-80,2,YEARS,WHITE,6,M,NOT HISPANIC OR LATINO,Y,Y,Y,Y,Y,Y,,,,20.2,<25,156.2,49.4,18,07APR2011,27,>=12,24JUL2013,2013-08-08,2014-02-05,12,05FEB2014,COMPLETED,COMPLETED,,22
CDISCPILOT01,01-701-1442,1442,701,701,Xanomeline Low Dose,Xanomeline Low Dose,54,Xanomeline Low Dose,54,26OCT2013,26APR2014,183,54,9882,57,<65,1,YEARS,BLACK OR AFRICAN AMERICAN,3,F,NOT HISPANIC OR LATINO,Y,Y,Y,Y,Y,Y,,,,40.1,>=30,162.6,106.1,12,20FEB2006,92,>=12,17OCT2013,2013-10-26,2014-04-26,12,26APR2014,COMPLETED,COMPLETED,,15
CDISCPILOT01,01-701-1444,1444,701,701,Xanomeline High Dose,Xanomeline High Dose,81,Xanomeline High Dose,81,05JAN2013,12FEB2013,39,71.3,2781,63,<65,1,YEARS,WHITE,6,M,HISPANIC OR LATINO,Y,Y,Y,N,N,N,Y,Y,,34.5,>=30,171.5,101.6,14,21MAY2008,55,>=12,31DEC2012,2013-01-05,2013-02-13,7,13FEB2013,ADVERSE EVENT,DISCONTINUED,Adverse Event,23
CDISCPILOT01,01-702-1082,1082,702,900,Xanomeline Low Dose,Xanomeline Low Dose,54,Xanomeline Low Dose,54,26JUL2013,13OCT2013,80,54,4320,84,>80,3,YEARS,WHITE,6,F,NOT HISPANIC OR LATINO,Y,Y,Y,Y,N,N,Y,,,,,154.9,,18,17MAY2007,74,>=12,03JUL2013,2013-07-26,2013-11-17,9,17NOV2013,WITHDRAWAL BY SUBJECT,DISCONTINUED,Withdrew Consent,23
CDISCPILOT01,01-703-1042,1042,703,703,Placebo,Placebo,0,Placebo,0,02MAR2013,31AUG2013,183,0,0,64,<65,1,YEARS,WHITE,6,M,NOT HISPANIC OR LATINO,Y,Y,Y,Y,Y,Y,,,,23.5,<25,177.8,74.4,12,23JUL2008,55,>=12,23FEB2013,2013-03-02,2013-08-31,12,31AUG2013,COMPLETED,COMPLETED,,23
CDISCPILOT01,01-703-1076,1076,703,703,Xanomeline High Dose,Xanomeline High Dose,81,Xanomeline High Dose,81,25OCT2013,24DEC2013,61,75.2,4590,69,65-80,2,YEARS,WHITE,6,M,NOT HISPANIC OR LATINO,Y,Y,Y,Y,N,N,Y,Y,,32.0,>=30,165.1,87.1,10,27AUG2012,14,>=12,17OCT2013,2013-10-25,2013-12-24,9,24DEC2013,ADVERSE EVENT,DISCONTINUED,Adverse Event,23
CDISCPILOT01,01-703-1086,1086,703,703,Xanomeline Low Dose,Xanomeline Low Dose,54,Xanomeline Low Dose,54,02SEP2012,04DEC2012,94,54,5076,71,65-80,2,YEARS,WHITE,6,M,NOT HISPANIC OR LATINO,Y,Y,Y,Y,Y,N,Y,Y,,25.0,25-<30,195.6,95.7,17,27APR2011,16,>=12,22AUG2012,2012-09-02,2012-12-24,10,24DEC2012,ADVERSE EVENT,DISCONTINUED,Adverse Event,17
CDISCPILOT01,01-703-1096,1096,703,703,Placebo,Placebo,0,Placebo,0,25JAN2013,16MAR2013,51,0,0,81,>80,3,YEARS,WHITE,6,F,NOT HISPANIC OR LATINO,Y,Y,N,N,N,N,Y,,,31.7,>=30,160,81.2,6,20DEC2006,72,>=12,19DEC2012,2013-01-25,2013-03-29,7,29MAR2013,LOST TO FOLLOW-UP,DISCONTINUED,Lost to Follow-up,22
CDISCPILOT01,01-703-1100,1100,703,703,Placebo,Placebo,0,Placebo,0,13MAR2013,14SEP2013,186,0,0,84,>80,3,YEARS,WHITE,6,F,NOT HISPANIC OR LATINO,Y,Y,Y,Y,Y,Y,,,,21.8,<25,167.6,61.2,8,02DEC2010,26,>=12,28FEB2013,2013-03-13,2013-09-14,12,14SEP2013,COMPLETED,COMPLETED,,22
CDISCPILOT01,01-703-1119,1119,703,703,Xanomeline Low Dose,Xanomeline Low Dose,54,Xanomeline Low Dose,54,20FEB2013,13JUN2013,114,54,6156,81,>80,3,YEARS,WHITE,6,F,NOT HISPANIC OR LATINO,Y,Y,Y,Y,Y,N,Y,Y,,18.4,<25,160,47.2,16,01FEB2005,96,>=12,02FEB2013,2013-02-20,2013-06-13,10,13JUN2013,ADVERSE EVENT,DISCONTINUED,Adverse Event,14
CDISCPILOT01,01-703-1175,1175,703,703,Placebo,Placebo,0,Placebo,0,20DEC2013,26DEC2013,7,0,0,75,65-80,2,YEARS,WHITE,6,M,NOT HISPANIC OR LATINO,Y,Y,Y,N,N,N,Y,,,26.6,25-<30,170.2,77.1,16,19SEP2010,39,>=12,13DEC2013,2013-12-20,2013-12-31,4,31DEC2013,PROTOCOL VIOLATION,DISCONTINUED,Protocol Violation,11
CDISCPILOT01,01-703-1182,1182,703,703,Xanomeline Low Dose,Xanomeline Low Dose,54,Xanomeline Low Dose,54,17OCT2013,11DEC2013,56,54,3024,84,>80,3,YEARS,WHITE,6,M,NOT HISPANIC OR LATINO,Y,Y,Y,Y,N,N,Y,Y,,22.8,<25,172.7,68,12,27SEP2011,25,>=12,08OCT2013,2013-10-17,2013-12-12,8,12DEC2013,ADVERSE EVENT,DISCONTINUED,Adverse Event,22
CDISCPILOT01,01-703-1197,1197,703,703,Xanomeline Low Dose,Xanomeline Low Dose,54,Xanomeline Low Dose,54,16JUN2013,29JUN2013,14,54,756,76,65-80,2,YEARS,BLACK OR AFRICAN AMERICAN,3,F,NOT HISPANIC OR LATINO,Y,Y,Y,N,N,N,Y,,,38.6,>=30,162.6,102.1,5,11JAN2012,17,>=12,01JUN2013,2013-06-16,2013-07-22,4,22JUL2013,WITHDRAWAL BY SUBJECT,DISCONTINUED,Withdrew Consent,12
CDISCPILOT01,01-703-1210,1210,703,703,Placebo,Placebo,0,Placebo,0,16MAR2013,06SEP2013,175,0,0,72,65-80,2,YEARS,WHITE,6,F,NOT HISPANIC OR LATINO,Y,Y,Y,Y,Y,Y,,,,23.8,<25,144.8,49.9,12,18FEB2010,37,>=12,08MAR2013,2013-03-16,2013-09-06,12,06SEP2013,COMPLETED,COMPLETED,,19
CDISCPILOT01,01-703-1258,1258,703,703,Xanomeline High Dose,Xanomeline High Dose,81,Xanomeline High Dose,81,20JUL2012,11JAN2013,176,77.3,13608,78,65-80,2,YEARS,WHITE,6,F,NOT HISPANIC OR LATINO,Y,Y,Y,Y,Y,Y,Y,Y,,24.8,<25,154.9,59.4,12,17FEB2006,77,>=12,10JUL2012,2012-07-20,2013-01-21,13,21JAN2013,ADVERSE EVENT,DISCONTINUED,Adverse Event,13
CDISCPILOT01,01-703-1279,1279,703,703,Xanomeline Low Dose,Xanomeline Low Dose,54,Xanomeline Low Dose,54,13MAY2013,03JUN2013,22,54,1188,72,65-80,2,YEARS,WHITE,6,F,NOT HISPANIC OR LATINO,Y,Y,N,N,N,N,Y,,,21.1,<25,162.6,55.8,12,29JUL2010,33,>=12,27APR2013,2013-05-13,2013-06-22,4,22JUN2013,WITHDRAWAL BY SUBJECT,DISCONTINUED,Withdrew Consent,14
CDISCPILOT01,01-703-1295,1295,703,703,Xanomeline High Dose,Xanomeline High Dose,81,Xanomeline High Dose,81,21NOV2013,19APR2014,150,78.3,11745,88,>80,3,YEARS,WHITE,6,F,NOT HISPANIC OR LATINO,Y,Y,Y,Y,Y,N,Y,,,22.7,<25,157.5,56.3,8,05APR2012,18,>=12,24OCT2013,2013-11-21,2014-05-19,11,19MAY2014,WITHDRAWAL BY SUBJECT,DISCONTINUED,Withdrew Consent,20
CDISCPILOT01,01-703-1299,1299,703,703,Placebo,Placebo,0,Placebo,0,12SEP2012,13MAR2013,183,0,0,81,>80,3,YEARS,WHITE,6,F,NOT HISPANIC OR LATINO,Y,Y,Y,Y,Y,Y,,,,19.2,<25,153.7,45.4,12,16SEP2011,12,>=12,07SEP2012,2012-09-12,2013-03-13,12,13MAR2013,COMPLETED,COMPLETED,,23
CDISCPILOT01,01-703-1335,1335,703,703,Xanomeline High Dose,Xanomeline High Dose,81,Xanomeline High Dose,81,17MAR2014,07MAY2014,52,73.2,3807,67,65-80,2,YEARS,BLACK OR AFRICAN AMERICAN,3,F,NOT HISPANIC OR LATINO,Y,Y,Y,N,N,N,Y,,,23.0,<25,154.9,55.3,11,30JAN2008,73,>=12,28FEB2014,2014-03-17,2014-05-24,7,24MAY2014,PROTOCOL VIOLATION,DISCONTINUED,Protocol Violation,10
CDISCPILOT01,01-703-1379,1379,703,703,Xanomeline Low Dose,Xanomeline Low Dose,54,Xanomeline Low Dose,54,22SEP2013,21MAR2014,181,54,9774,81,>80,3,YEARS,BLACK OR AFRICAN AMERICAN,3,F,NOT HISPANIC OR LATINO,Y,Y,Y,Y,Y,Y,,,,30.7,>=30,157.5,76.2,7,21SEP2009,48,>=12,12SEP2013,2013-09-22,2014-03-21,12,21MAR2014,COMPLETED,COMPLETED,,12
CDISCPILOT01,01-703-1403,1403,703,703,Xanomeline High Dose,Xanomeline High Dose,81,Xanomeline High Dose,81,12DEC2012,13DEC2012,2,54,108,67,65-80,2,YEARS,WHITE,6,M,NOT HISPANIC OR LATINO,Y,Y,N,N,N,N,Y,Y,,25.4,25-<30,177.8,80.3,12,07DEC2010,24,>=12,05DEC2012,2012-12-12,2012-12-19,4,19DEC2012,ADVERSE EVENT,DISCONTINUED,Adverse Event,23
CDISCPILOT01,01-703-1439,1439,703,703,Xanomeline High Dose,Xanomeline High Dose,81,Xanomeline High Dose,81,12MAR2014,11SEP2014,184,76.7,14121,76,65-80,2,YEARS,WHITE,6,F,NOT HISPANIC OR LATINO,Y,Y,Y,Y,Y,Y,,,,24.8,<25,160,63.5,12,29JUL2010,44,>=12,04MAR2014,2014-03-12,2014-09-11,12,11SEP2014,COMPLETED,COMPLETED,,16
CDISCPILOT01,01-704-1008,1008,704,704,Xanomeline High Dose,Xanomeline High Dose,81,Xanomeline High Dose,81,13JAN2013,21FEB2013,40,70.2,2808,76,65-80,2,YEARS,WHITE,6,F,NOT HISPANIC OR LATINO,Y,Y,Y,N,N,N,Y,Y,,21.3,<25,148,46.7,12,17OCT2011,15,>=12,06JAN2013,2013-01-13,2013-02-25,7,25FEB2013,ADVERSE EVENT,DISCONTINUED,Adverse Event,21
CDISCPILOT01,01-704-1009,1009,704,704,Xanomeline Low Dose,Xanomeline Low Dose,54,Xanomeline Low Dose,54,27AUG2013,25SEP2013,30,54,1620,83,>80,3,YEARS,WHITE,6,M,NOT HISPANIC OR LATINO,Y,Y,Y,N,N,N,Y,,,20.8,<25,179.1,66.7,16,03FEB2009,54,>=12,20AUG2013,2013-08-27,2013-10-02,5,02OCT2013,WITHDRAWAL BY SUBJECT,DISCONTINUED,Withdrew Consent,21
CDISCPILOT01,01-704-1010,1010,704,704,Placebo,Placebo,0,Placebo,0,21FEB2014,08JUL2014,138,0,0,80,65-80,2,YEARS,WHITE,6,M,NOT HISPANIC OR LATINO,Y,Y,Y,Y,Y,N,Y,,,25.6,25-<30,177.8,81,14,02JAN2006,97,>=12,08FEB2014,2014-02-21,2014-07-09,11,09JUL2014,WITHDRAWAL BY SUBJECT,DISCONTINUED,Withdrew Consent,17
CDISCPILOT01,01-704-1017,1017,704,704,Xanomeline High Dose,Xanomeline High Dose,81,Xanomeline High Dose,81,06OCT2013,18NOV2013,44,72.4,3186,77,65-80,2,YEARS,WHITE,6,M,NOT HISPANIC OR LATINO,Y,Y,Y,N,N,N,Y,Y,,21.8,<25,170.2,63.1,12,27MAR2011,30,>=12,20SEP2013,2013-10-06,2013-11-24,7,24NOV2013,ADVERSE EVENT,DISCONTINUED,Adverse Event,21
CDISCPILOT01,01-704-1025,1025,704,704,Xanomeline Low Dose,Xanomeline Low Dose,54,Xanomeline Low Dose,54,27SEP2013,24OCT2013,28,54,1512,81,>80,3,YEARS,WHITE,6,F,NOT HISPANIC OR LATINO,Y,Y,Y,N,N,N,Y,Y,,20.1,<25,166,55.5,18,03MAR2012,18,>=12,18SEP2013,2013-09-27,2013-11-29,6,29NOV2013,ADVERSE EVENT,DISCONTINUED,Adverse Event,17
CDISCPILOT01,01-704-1065,1065,704,704,Xanomeline High Dose,Xanomeline High Dose,81,Xanomeline High Dose,81,24OCT2013,22DEC2013,60,74.3,4455,75,65-80,2,YEARS,WHITE,6,M,NOT HISPANIC OR LATINO,Y,Y,Y,Y,N,N,Y,Y,,24.8,<25,180.3,80.7,12,23MAR2010,43,>=12,17OCT2013,2013-10-24,2013-12-24,9,24DEC2013,ADVERSE EVENT,DISCONTINUED,Adverse Event,20
CDISCPILOT01,01-704-1074,1074,704,704,Xanomeline High Dose,Xanomeline High Dose,81,Xanomeline High Dose,81,22JAN2014,20MAR2014,58,72.2,4185,80,65-80,2,YEARS,WHITE,6,F,NOT HISPANIC OR LATINO,Y,Y,Y,Y,N,N,Y,Y,,27.0,25-<30,167.6,75.8,16,30JAN2009,60,>=12,19JAN2014,2014-01-22,2014-03-31,8,31MAR2014,ADVERSE EVENT,DISCONTINUED,Adverse Event,17
CDISCPILOT01,01-704-1093,1093,704,704,Xanomeline High Dose,Xanomeline High Dose,81,Xanomeline High Dose,81,15MAR2013,17JUN2013,95,76.5,7263,79,65-80,2,YEARS,WHITE,6,M,NOT HISPANIC OR LATINO,Y,Y,Y,Y,Y,N,Y,Y,,24.3,<25,174,73.5,12,17JUL2010,31,>=12,22FEB2013,2013-03-15,2013-06-20,10,20JUN2013,ADVERSE EVENT,DISCONTINUED,Adverse Event,18
CDISCPILOT01,01-704-1114,1114,704,704,Xanomeline Low Dose,Xanomeline Low Dose,54,Xanomeline Low Dose,54,23JAN2013,07JUL2013,166,54,8964,77,65-80,2,YEARS,WHITE,6,M,NOT HISPANIC OR LATINO,Y,Y,Y,Y,Y,Y,Y,,,28.1,25-<30,166.4,77.8,8,25MAR2007,70,>=12,09JAN2013,2013-01-23,2013-07-08,12,08JUL2013,WITHDRAWAL BY SUBJECT,DISCONTINUED,Withdrew Consent,20
CDISCPILOT01,01-704-1120,1120,704,704,Xanomeline Low Dose,Xanomeline Low Dose,54,Xanomeline Low Dose,54,02DEC2013,01FEB2014,62,54,3348,71,65-80,2,YEARS,WHITE,6,F,NOT HISPANIC OR LATINO,Y,Y,Y,Y,N,N,Y,Y,,23.9,<25,147,51.7,13,23MAR2007,80,>=12,18NOV2013,2013-12-02,2014-02-03,9,03FEB2014,ADVERSE EVENT,DISCONTINUED,Adverse Event,16
CDISCPILOT01,01-704-1127,1127,704,704,Placebo,Placebo,0,Placebo,0,02OCT2013,31MAR2014,181,0,0,84,>80,3,YEARS,WHITE,6,F,NOT HISPANIC OR LATINO,Y,Y,Y,Y,Y,Y,,,,15.1,<25,165.1,41.1,12,11SEP2008,60,>=12,16SEP2013,2013-10-02,2014-03-31,12,31MAR2014,COMPLETED,COMPLETED,,22
CDISCPILOT01,01-704-1135,1135,704,704,Xanomeline Low Dose,Xanomeline Low Dose,54,Xanomeline Low Dose,54,31OCT2013,16MAY2014,198,54,10692,74,65-80,2,YEARS,WHITE,6,F,NOT HISPANIC OR LATINO,Y,Y,Y,Y,Y,Y,,,,24.6,<25,161.8,64.4,14,06OCT2010,36,>=12,23OCT2013,2013-10-31,2014-05-16,12,16MAY2014,COMPLETED,COMPLETED,,23
CDISCPILOT01,01-704-1164,1164,704,704,Placebo,Placebo,0,Placebo,0,19SEP2012,04APR2013,198,0,0,67,65-80,2,YEARS,WHITE,6,F,NOT HISPANIC OR LATINO,Y,Y,Y,Y,Y,Y,,,,20.1,<25,157.5,49.9,10,04MAR2011,18,>=12,11SEP2012,2012-09-19,2013-04-04,12,04APR2013,COMPLETED,COMPLETED,,16
CDISCPILOT01,01-704-1218,1218,704,704,Xanomeline Low Dose,Xanomeline Low Dose,54,Xanomeline Low Dose,54,19NOV2012,27MAY2013,190,54,10260,81,>80,3,YEARS,WHITE,6,F,NOT HISPANIC OR LATINO,Y,Y,Y,Y,Y,Y,,,,26.2,25-<30,144,54.4,12,15AUG2010,27,>=12,11NOV2012,2012-11-19,2013-05-27,12,27MAY2013,COMPLETED,COMPLETED,,22
CDISCPILOT01,01-704-1233,1233,704,704,Placebo,Placebo,0,Placebo,0,21MAR2013,14JUL2013,116,0,0,87,>80,3,YEARS,WHITE,6,F,NOT HISPANIC OR LATINO,Y,Y,Y,Y,Y,N,Y,,,21.3,<25,147.3,46.3,16,15JAN2011,26,>=12,08MAR2013,2013-03-21,2013-07-14,11,14JUL2013,WITHDRAWAL BY SUBJECT,DISCONTINUED,Withdrew Consent,15
CDISCPILOT01,01-704-1241,1241,704,704,Xanomeline High Dose,Xanomeline High Dose,81,Xanomeline High Dose,81,25AUG2013,09OCT2013,46,74,3402,86,>80,3,YEARS,WHITE,6,M,NOT HISPANIC OR LATINO,Y,Y,Y,Y,N,N,Y,Y,,25.2,25-<30,170.2,73,14,25JUL2011,25,>=12,14AUG2013,2013-08-25,2013-10-31,8,31OCT2013,ADVERSE EVENT,DISCONTINUED,Adverse Event,21
CDISCPILOT01,01-704-1260,1260,704,704,Placebo,Placebo,0,Placebo,0,30AUG2012,04NOV2012,67,0,0,71,65-80,2,YEARS,WHITE,6,F,NOT HISPANIC OR LATINO,Y,Y,Y,Y,N,N,Y,,,19.1,<25,160,48.8,16,29NOV2002,117,>=12,23AUG2012,2012-08-30,2013-01-18,9,18JAN2013,WITHDRAWAL BY SUBJECT,DISCONTINUED,Withdrew Consent,16
CDISCPILOT01,01-704-1266,1266,704,704,Xanomeline High Dose,Xanomeline High Dose,81,Xanomeline High Dose,81,13OCT2013,06DEC2013,55,73.6,4050,82,>80,3,YEARS,WHITE,6,M,NOT HISPANIC OR LATINO,Y,Y,Y,Y,N,N,Y,Y,,29.2,25-<30,174,88.5,12,02DEC2011,22,>=12,05OCT2013,2013-10-13,2013-12-06,8,06DEC2013,ADVERSE EVENT,DISCONTINUED,Adverse Event,16
CDISCPILOT01,01-704-1323,1323,704,704,Xanomeline Low Dose,Xanomeline Low Dose,54,Xanomeline Low Dose,54,08JUL2013,05AUG2013,29,54,1566,68,65-80,2,YEARS,WHITE,6,F,NOT HISPANIC OR LATINO,Y,Y,N,N,N,N,Y,Y,,22.7,<25,162.6,59.9,16,23MAR2010,39,>=12,13JUN2013,2013-07-08,2013-08-08,7,08AUG2013,ADVERSE EVENT,DISCONTINUED,Adverse Event,23
CDISCPILOT01,01-704-1325,1325,704,704,Xanomeline Low Dose,Xanomeline Low Dose,54,Xanomeline Low Dose,54,23APR2014,04JUL2014,73,54,3942,81,>80,3,YEARS,WHITE,6,M,NOT HISPANIC OR LATINO,Y,Y,Y,Y,Y,N,Y,,,22.3,<25,175.3,68.5,16,02NOV2008,65,>=12,16APR2014,2014-04-23,2014-08-06,10,06AUG2014,PROTOCOL VIOLATION,DISCONTINUED,Protocol Violation,18
CDISCPILOT01,01-704-1332,1332,704,704,Xanomeline High Dose,Xanomeline High Dose,81,Xanomeline High Dose,81,09DEC2013,14FEB2014,68,75,5103,80,65-80,2,YEARS,WHITE,6,M,NOT HISPANIC OR LATINO,Y,Y,Y,Y,N,N,Y,Y,,26.2,25-<30,173,78.5,9,09NOV2011,24,>=12,24NOV2013,2013-12-09,2014-02-16,9,16FEB2014,ADVERSE EVENT,DISCONTINUED,Adverse Event,22
CDISCPILOT01,01-704-1351,1351,704,704,Placebo,Placebo,0,Placebo,0,12OCT2013,18APR2014,189,0,0,70,65-80,2,YEARS,WHITE,6,M,NOT HISPANIC OR LATINO,Y,Y,Y,Y,Y,Y,,,,23.9,<25,175.3,73.5,12,10SEP2012,12,>=12,26SEP2013,2013-10-12,2014-04-18,12,18APR2014,COMPLETED,COMPLETED,,22
CDISCPILOT01,01-704-1388,1388,704,704,Placebo,Placebo,0,Placebo,0,07DEC2012,11JUN2013,187,0,0,81,>80,3,YEARS,WHITE,6,M,NOT HISPANIC OR LATINO,Y,Y,Y,Y,Y,Y,,,,18.8,<25,176.5,58.5,11,26OCT2010,25,>=12,28NOV2012,2012-12-07,2013-06-19,12,19JUN2013,COMPLETED,COMPLETED,,20
CDISCPILOT01,01-704-1435,1435,704,704,Placebo,Placebo,0,Placebo,0,17NOV2012,09JAN2013,54,0,0,74,65-80,2,YEARS,WHITE,6,M,NOT HISPANIC OR LATINO,Y,Y,Y,Y,N,N,Y,,,27.1,25-<30,167.6,76.2,16,20JAN2010,34,>=12,01NOV2012,2012-11-17,2013-01-12,8,12JAN2013,WITHDRAWAL BY SUBJECT,DISCONTINUED,Withdrew Consent,20
CDISCPILOT01,01-704-1445,1445,704,704,Placebo,Placebo,0,Placebo,0,11MAY2014,01NOV2014,175,0,0,75,65-80,2,YEARS,WHITE,6,M,NOT HISPANIC OR LATINO,Y,Y,Y,Y,Y,Y,Y,,Y,22.8,<25,177.8,72.1,12,11NOV2012,18,>=12,01MAY2014,2014-05-11,2014-11-01,12,01NOV2014,DEATH,DISCONTINUED,Death,23
CDISCPILOT01,01-705-1018,1018,705,705,Placebo,Placebo,0,Placebo,0,05JUL2013,12JUL2013,8,0,0,69,65-80,2,YEARS,WHITE,6,F,NOT HISPANIC OR LATINO,Y,Y,N,N,N,N,Y,,,22.6,<25,147.3,49,6,21NOV2009,43,>=12,30JUN2013,2013-07-05,2013-07-12,4,12JUL2013,WITHDRAWAL BY SUBJECT,DISCONTINUED,Withdrew Consent,18
CDISCPILOT01,01-705-1031,1031,705,705,Xanomeline Low Dose,Xanomeline Low Dose,54,Xanomeline Low Dose,54,27NOV2013,11MAY2014,166,54,8964,56,<65,1,YEARS,WHITE,6,F,HISPANIC OR LATINO,Y,Y,Y,Y,Y,Y,Y,,,28.9,25-<30,157.5,71.7,16,25NOV2010,36,>=12,17NOV2013,2013-11-27,2014-05-11,12,11MAY2014,LOST TO FOLLOW-UP,DISCONTINUED,Lost to Follow-up,23
CDISCPILOT01,01-705-1059,1059,705,705,Placebo,Placebo,0,Placebo,0,05AUG2013,05DEC2013,123,0,0,66,65-80,2,YEARS,WHITE,6,F,NOT HISPANIC OR LATINO,Y,Y,Y,Y,Y,N,Y,Y,,20.4,<25,162.6,54,12,20JUL2009,49,>=12,02AUG2013,2013-08-05,2013-12-05,10,05DEC2013,ADVERSE EVENT,DISCONTINUED,Adverse Event,16
CDISCPILOT01,01-705-1186,1186,705,705,Placebo,Placebo,0,Placebo,0,08JAN2014,26JAN2014,19,0,0,84,>80,3,YEARS,WHITE,6,F,NOT HISPANIC OR LATINO,Y,Y,N,N,N,N,Y,,,19.7,<25,142.2,39.9,12,03JUL2011,30,>=12,03JAN2014,2014-01-08,2014-02-07,5,07FEB2014,PHYSICIAN DECISION,DISCONTINUED,Physician Decision,15
CDISCPILOT01,01-705-1199,1199,705,705,Xanomeline Low Dose,Xanomeline Low Dose,54,Xanomeline Low Dose,54,16SEP2013,28SEP2013,13,54,702,87,>80,3,YEARS,WHITE,6,M,NOT HISPANIC OR LATINO,Y,Y,Y,N,N,N,Y,Y,,24.8,<25,161.3,64.4,20,08SEP2007,72,>=12,11SEP2013,2013-09-16,2013-09-29,4,29SEP2013,ADVERSE EVENT,DISCONTINUED,Adverse Event,19
CDISCPILOT01,01-705-1280,1280,705,705,Xanomeline High Dose,Xanomeline High Dose,81,Xanomeline High Dose,81,17JAN2014,25JUL2014,190,76.9,14607,56,<65,1,YEARS,WHITE,6,F,NOT HISPANIC OR LATINO,Y,Y,Y,Y,Y,Y,,,,28.0,25-<30,157.5,69.4,12,04JAN2013,12,>=12,11JAN2014,2014-01-17,2014-07-25,12,25JUL2014,COMPLETED,COMPLETED,,23
CDISCPILOT01,01-705-1281,1281,705,705,Xanomeline High Dose,Xanomeline High Dose,81,Xanomeline High Dose,81,28NOV2013,27FEB2014,92,75.7,6966,73,65-80,2,YEARS,BLACK OR AFRICAN AMERICAN,3,F,NOT HISPANIC OR LATINO,Y,Y,Y,Y,Y,N,Y,Y,,31.4,>=30,152.4,73,12,05NOV2012,12,>=12,26NOV2013,2013-11-28,2014-03-17,10,17MAR2014,ADVERSE EVENT,DISCONTINUED,Adverse Event,23
CDISCPILOT01,01-705-1282,1282,705,705,Placebo,Placebo,0,Placebo,0,26DEC2012,24JUN2013,181,0,0,70,65-80,2,YEARS,BLACK OR AFRICAN AMERICAN,3,F,NOT HISPANIC OR LATINO,Y,Y,Y,Y,Y,Y,,,,30.4,>=30,154.9,73,12,06DEC2006,72,>=12,23DEC2012,2012-12-26,2013-06-24,12,24JUN2013,COMPLETED,COMPLETED,,10
CDISCPILOT01,01-705-1292,1292,705,705,Xanomeline Low Dose,Xanomeline Low Dose,54,Xanomeline Low Dose,54,14OCT2013,13MAY2014,212,54,11448,60,<65,1,YEARS,BLACK OR AFRICAN AMERICAN,3,F,NOT HISPANIC OR LATINO,Y,Y,Y,Y,Y,Y,,,,26.8,25-<30,167.6,75.3,8,28SEP2012,13,>=12,11OCT2013,2013-10-14,2014-05-14,12,14MAY2014,COMPLETED,COMPLETED,,23
CDISCPILOT01,01-705-1303,1303,705,705,Xanomeline High Dose,Xanomeline High Dose,81,Xanomeline High Dose,81,16DEC2013,02JUN2014,169,78.6,13284,72,65-80,2,YEARS,WHITE,6,M,NOT HISPANIC OR LATINO,Y,Y,Y,Y,Y,N,Y,Y,,27.5,25-<30,175.3,84.4,12,15DEC2010,36,>=12,10DEC2013,2013-12-16,2014-06-02,11,02JUN2014,ADVERSE EVENT,DISCONTINUED,Adverse Event,19
CDISCPILOT01,01-705-1310,1310,705,705,Xanomeline High Dose,Xanomeline High Dose,81,Xanomeline High Dose,81,02NOV2013,23JAN2014,83,74.2,6156,74,65-80,2,YEARS,WHITE,6,F,NOT HISPANIC OR LATINO,Y,Y,Y,Y,N,N,Y,Y,,22.7,<25,146.1,48.5,12,30OCT2011,24,>=12,26OCT2013,2013-11-02,2014-01-23,9,23JAN2014,ADVERSE EVENT,DISCONTINUED,Adverse Event,20
CDISCPILOT01,01-705-1349,1349,705,705,Placebo,Placebo,0,Placebo,0,10MAR2013,08SEP2013,183,0,0,86,>80,3,YEARS,WHITE,6,F,HISPANIC OR LATINO,Y,Y,Y,Y,Y,Y,,,,21.2,<25,144.8,44.5,10,23MAR2007,71,>=12,24FEB2013,2013-03-10,2013-09-08,12,08SEP2013,COMPLETED,COMPLETED,,15
CDISCPILOT01,01-705-1377,1377,705,705,Xanomeline High Dose,Xanomeline High Dose,81,Xanomeline High Dose,81,04JAN2014,07MAR2014,63,71.6,4509,63,<65,1,YEARS,BLACK OR AFRICAN AMERICAN,3,F,NOT HISPANIC OR LATINO,Y,Y,N,N,N,N,Y,,,21.0,<25,165.1,57.2,6,05JAN2012,23,>=12,29DEC2013,2014-01-04,2014-03-07,7,07MAR2014,WITHDRAWAL BY SUBJECT,DISCONTINUED,Withdrew Consent,14
CDISCPILOT01,01-705-1382,1382,705,705,Xanomeline High Dose,Xanomeline High Dose,81,Xanomeline High Dose,81,13MAY2013,13MAY2013,1,54,54,82,>80,3,YEARS,WHITE,6,M,NOT HISPANIC OR LATINO,Y,Y,N,N,N,N,Y,,,33.2,>=30,170.2,96.2,12,03MAY2012,12,>=12,09MAY2013,2013-05-13,2013-05-13,4,13MAY2013,PROTOCOL VIOLATION,DISCONTINUED,Protocol Violation,19
CDISCPILOT01,01-705-1393,1393,705,705,Xanomeline Low Dose,Xanomeline Low Dose,54,Xanomeline Low Dose,54,07SEP2012,01FEB2013,148,54,7992,84,>80,3,YEARS,WHITE,6,F,NOT HISPANIC OR LATINO,Y,Y,Y,Y,Y,N,Y,Y,,26.9,25-<30,144.8,56.3,13,08SEP2004,96,>=12,02SEP2012,2012-09-07,2013-02-20,11,20FEB2013,ADVERSE EVENT,DISCONTINUED,Adverse Event,19
CDISCPILOT01,01-705-1431,1431,705,705,Xanomeline Low Dose,Xanomeline Low Dose,54,Xanomeline Low Dose,54,23JUN2013,19DEC2013,180,54,9720,68,65-80,2,YEARS,WHITE,6,F,HISPANIC OR LATINO,Y,Y,Y,Y,Y,Y,,,,24.2,<25,149.9,54.4,12,04JUL2010,35,>=12,16JUN2013,2013-06-23,2013-12-19,12,19DEC2013,COMPLETED,COMPLETED,,21
CDISCPILOT01,01-706-1041,1041,706,900,Placebo,Placebo,0,Placebo,0,31DEC2013,28JUL2014,210,0,0,64,<65,1,YEARS,BLACK OR AFRICAN AMERICAN,3,F,NOT HISPANIC OR LATINO,Y,Y,Y,Y,Y,Y,,,,20.9,<25,167.6,58.7,15,18NOV2011,25,>=12,21DEC2013,2013-12-31,2014-07-29,12,29JUL2014,COMPLETED,COMPLETED,,20
CDISCPILOT01,01-706-1049,1049,706,900,Xanomeline High Dose,Xanomeline High Dose,81,Xanomeline High Dose,81,14MAY2013,18JUN2013,36,69.8,2511,60,<65,1,YEARS,WHITE,6,F,NOT HISPANIC OR LATINO,Y,Y,Y,N,N,N,Y,Y,,20.6,<25,167.6,57.8,11,02MAY2010,35,>=12,30APR2013,2013-05-14,2013-06-25,7,25JUN2013,ADVERSE EVENT,DISCONTINUED,Adverse Event,16
CDISCPILOT01,01-706-1384,1384,706,900,Xanomeline Low Dose,Xanomeline Low Dose,54,Xanomeline Low Dose,54,15SEP2012,24SEP2012,10,54,540,74,65-80,2,YEARS,WHITE,6,F,NOT HISPANIC OR LATINO,Y,Y,Y,N,N,N,Y,Y,,30.6,>=30,157.5,76,8,04MAY2008,51,>=12,25AUG2012,2012-09-15,2012-09-29,4,29SEP2012,ADVERSE EVENT,DISCONTINUED,Adverse Event,20
CDISCPILOT01,01-707-1037,1037,707,900,Xanomeline Low Dose,Xanomeline Low Dose,54,Xanomeline Low Dose,54,20DEC2013,24DEC2013,5,54,270,72,65-80,2,YEARS,WHITE,6,F,NOT HISPANIC OR LATINO,Y,Y,Y,N,N,N,Y,,,23.8,<25,152.4,55.3,14,02JAN2009,59,>=12,12DEC2013,2013-12-20,2014-01-08,4,08JAN2014,WITHDRAWAL BY SUBJECT,DISCONTINUED,Withdrew Consent,24
CDISCPILOT01,01-707-1206,1206,707,900,Placebo,Placebo,0,Placebo,0,28OCT2013,26APR2014,181,0,0,65,65-80,2,YEARS,WHITE,6,M,NOT HISPANIC OR LATINO,Y,Y,Y,Y,Y,Y,,,,24.6,<25,174,74.4,7,23AUG2012,14,>=12,20OCT2013,2013-10-28,2014-04-27,12,27APR2014,COMPLETED,COMPLETED,,21
CDISCPILOT01,01-708-1019,1019,708,708,Xanomeline Low Dose,Xanomeline Low Dose,54,Xanomeline Low Dose,54,20DEC2013,01JAN2014,13,54,702,68,65-80,2,YEARS,WHITE,6,M,NOT HISPANIC OR LATINO,Y,Y,Y,N,N,N,Y,Y,,22.2,<25,182.9,74.4,18,19DEC2006,84,>=12,10DEC2013,2013-12-20,2014-01-23,4,23JAN2014,ADVERSE EVENT,DISCONTINUED,Adverse Event,17
CDISCPILOT01,01-708-1032,1032,708,708,Xanomeline Low Dose,Xanomeline Low Dose,54,Xanomeline Low Dose,54,09FEB2013,01MAR2013,21,54,1134,62,<65,1,YEARS,WHITE,6,M,NOT HISPANIC OR LATINO,Y,Y,Y,N,N,N,Y,Y,,26.1,25-<30,177.8,82.6,12,16JUL2002,127,>=12,02FEB2013,2013-02-09,2013-03-09,5,09MAR2013,ADVERSE EVENT,DISCONTINUED,Adverse Event,18
CDISCPILOT01,01-708-1084,1084,708,708,Xanomeline Low Dose,Xanomeline Low Dose,54,Xanomeline Low Dose,54,09MAY2013,11NOV2013,187,54,10098,73,65-80,2,YEARS,WHITE,6,F,NOT HISPANIC OR LATINO,Y,Y,Y,Y,Y,Y,,,,17.9,<25,167.6,50.4,12,26APR2010,37,>=12,01MAY2013,2013-05-09,2013-11-11,12,11NOV2013,COMPLETED,COMPLETED,,23
CDISCPILOT01,01-708-1087,1087,708,708,Placebo,Placebo,0,Placebo,0,22OCT2012,28APR2013,189,0,0,74,65-80,2,YEARS,WHITE,6,F,NOT HISPANIC OR LATINO,Y,Y,Y,Y,Y,Y,,,,26.9,25-<30,157.5,66.7,12,02SEP2008,49,>=12,06OCT2012,2012-10-22,2013-04-28,12,28APR2013,COMPLETED,COMPLETED,,17
CDISCPILOT01,01-708-1158,1158,708,708,Placebo,Placebo,0,Placebo,0,08FEB2014,21MAR2014,42,0,0,81,>80,3,YEARS,WHITE,6,F,NOT HISPANIC OR LATINO,Y,Y,Y,N,N,N,Y,Y,,27.8,25-<30,162.6,73.5,8,01AUG2010,42,>=12,01FEB2014,2014-02-08,2014-03-22,7,22MAR2014,ADVERSE EVENT,DISCONTINUED,Adverse Event,16
CDISCPILOT01,01-708-1171,1171,708,708,Placebo,Placebo,0,Placebo,0,06DEC2012,04JUN2013,181,0,0,77,65-80,2,YEARS,WHITE,6,F,NOT HISPANIC OR LATINO,Y,Y,Y,Y,Y,Y,,,,20.8,<25,162.6,54.9,9,24SEP2010,26,>=12,25NOV2012,2012-12-06,2013-06-04,12,04JUN2013,COMPLETED,COMPLETED,,13
CDISCPILOT01,01-708-1178,1178,708,708,Xanomeline High Dose,Xanomeline High Dose,81,Xanomeline High Dose,81,29DEC2013,06APR2014,99,75.3,7452,77,65-80,2,YEARS,BLACK OR AFRICAN AMERICAN,3,F,NOT HISPANIC OR LATINO,Y,Y,Y,Y,N,N,Y,,,23.0,<25,165.1,62.8,8,10AUG2008,64,>=12,13DEC2013,2013-12-29,2014-04-06,9,06APR2014,PHYSICIAN DECISION,DISCONTINUED,Physician Decision,10
CDISCPILOT01,01-708-1213,1213,708,708,Xanomeline High Dose,Xanomeline High Dose,81,Xanomeline High Dose,81,09FEB2013,22FEB2013,14,54,756,76,65-80,2,YEARS,WHITE,6,F,NOT HISPANIC OR LATINO,Y,Y,N,N,N,N,Y,Y,,15.3,<25,165.1,41.7,12,06FEB2011,24,>=12,01FEB2013,2013-02-09,2013-02-26,5,26FEB2013,ADVERSE EVENT,DISCONTINUED,Adverse Event,14
CDISCPILOT01,01-708-1216,1216,708,708,Xanomeline High Dose,Xanomeline High Dose,81,Xanomeline High Dose,81,24OCT2012,29NOV2012,37,69.3,2565,78,65-80,2,YEARS,WHITE,6,M,NOT HISPANIC OR LATINO,Y,Y,Y,N,N,N,Y,Y,,25.9,25-<30,172.7,77.1,12,15JUL2001,135,>=12,14OCT2012,2012-10-24,2012-12-06,7,06DEC2012,ADVERSE EVENT,DISCONTINUED,Adverse Event,17
CDISCPILOT01,01-708-1236,1236,708,708,Xanomeline High Dose,Xanomeline High Dose,81,Xanomeline High Dose,81,21SEP2013,21SEP2013,1,54,54,86,>80,3,YEARS,WHITE,6,F,NOT HISPANIC OR LATINO,Y,Y,N,N,N,N,Y,,,23.4,<25,152.4,54.4,8,08SEP2012,12,>=12,08SEP2013,2013-09-21,2013-09-26,4,26SEP2013,WITHDRAWAL BY SUBJECT,DISCONTINUED,Withdrew Consent,22
CDISCPILOT01,01-708-1253,1253,708,708,Placebo,Placebo,0,Placebo,0,07MAY2013,05NOV2013,183,0,0,61,<65,1,YEARS,WHITE,6,M,NOT HISPANIC OR LATINO,Y,Y,Y,Y,Y,Y,,,,22.1,<25,185.4,75.8,12,12MAR2009,49,>=12,26APR2013,2013-05-07,2013-11-05,12,05NOV2013,COMPLETED,COMPLETED,,12
CDISCPILOT01,01-708-1272,1272,708,708,Xanomeline Low Dose,Xanomeline Low Dose,54,Xanomeline Low Dose,54,06FEB2013,22MAR2013,45,54,2430,82,>80,3,YEARS,WHITE,6,M,NOT HISPANIC OR LATINO,Y,Y,Y,Y,N,N,Y,,,24.9,<25,172.7,74.4,11,07AUG2006,77,>=12,22JAN2013,2013-02-06,2013-04-04,8,04APR2013,WITHDRAWAL BY SUBJECT,DISCONTINUED,Withdrew Consent,15
CDISCPILOT01,01-708-1286,1286,708,708,Placebo,Placebo,0,Placebo,0,10SEP2013,08MAR2014,180,0,0,80,65-80,2,YEARS,BLACK OR AFRICAN AMERICAN,3,F,NOT HISPANIC OR LATINO,Y,Y,Y,Y,Y,Y,,,,32.8,>=30,152.4,76.2,12,03OCT2001,142,>=12,25AUG2013,2013-09-10,2014-03-08,12,08MAR2014,COMPLETED,COMPLETED,,10
CDISCPILOT01,01-708-1296,1296,708,708,Placebo,Placebo,0,Placebo,0,14JUN2013,12DEC2013,182,0,0,57,<65,1,YEARS,BLACK OR AFRICAN AMERICAN,3,M,NOT HISPANIC OR LATINO,Y,Y,Y,Y,Y,Y,,,,27.9,25-<30,170.2,80.7,18,03FEB2010,40,>=12,07JUN2013,2013-06-14,2013-12-12,12,12DEC2013,COMPLETED,COMPLETED,,16
CDISCPILOT01,01-708-1297,1297,708,708,Xanomeline Low Dose,Xanomeline Low Dose,54,Xanomeline Low Dose,54,25JAN2013,03MAY2013,99,54,5346,61,<65,1,YEARS,WHITE,6,M,NOT HISPANIC OR LATINO,Y,Y,Y,Y,Y,N,Y,Y,,23.0,<25,185.4,78.9,13,27FEB2008,59,>=12,15JAN2013,2013-01-25,2013-05-08,10,08MAY2013,ADVERSE EVENT,DISCONTINUED,Adverse Event,23
CDISCPILOT01,01-708-1316,1316,708,708,Placebo,Placebo,0,Placebo,0,23AUG2013,01MAR2014,191,0,0,74,65-80,2,YEARS,WHITE,6,F,NOT HISPANIC OR LATINO,Y,Y,Y,Y,Y,Y,,,,23.4,<25,160,59.9,12,08AUG2011,24,>=12,15AUG2013,2013-08-23,2014-03-01,12,01MAR2014,COMPLETED,COMPLETED,,22
CDISCPILOT01,01-708-1336,1336,708,708,Xanomeline High Dose,Xanomeline High Dose,81,Xanomeline High Dose,81,07DEC2012,05JUN2013,181,76.7,13878,73,65-80,2,YEARS,WHITE,6,M,NOT HISPANIC OR LATINO,Y,Y,Y,Y,Y,Y,,,,24.1,<25,190.5,87.5,18,01DEC2002,119,>=12,21NOV2012,2012-12-07,2013-06-05,12,05JUN2013,COMPLETED,COMPLETED,,15
CDISCPILOT01,01-708-1342,1342,708,708,Placebo,Placebo,0,Placebo,0,29DEC2012,28JUN2013,182,0,0,59,<65,1,YEARS,WHITE,6,F,NOT HISPANIC OR LATINO,Y,Y,Y,Y,Y,Y,,,,20.4,<25,170.2,59,13,24SEP2010,27,>=12,21DEC2012,2012-12-29,2013-06-28,12,28JUN2013,COMPLETED,COMPLETED,,18
CDISCPILOT01,01-708-1347,1347,708,708,Xanomeline High Dose,Xanomeline High Dose,81,Xanomeline High Dose,81,20APR2013,18JUN2013,60,74.3,4455,61,<65,1,YEARS,WHITE,6,F,NOT HISPANIC OR LATINO,Y,Y,Y,Y,N,N,Y,Y,,29.2,25-<30,160,74.8,12,23MAY2009,47,>=12,11APR2013,2013-04-20,2013-06-18,9,18JUN2013,ADVERSE EVENT,DISCONTINUED,Adverse Event,22
CDISCPILOT01,01-708-1348,1348,708,708,Xanomeline Low Dose,Xanomeline Low Dose,54,Xanomeline Low Dose,54,05AUG2013,13FEB2014,193,54,10422,79,65-80,2,YEARS,WHITE,6,F,NOT HISPANIC OR LATINO,Y,Y,Y,Y,Y,Y,,,,23.6,<25,160,60.3,12,29JUL2010,36,>=12,28JUL2013,2013-08-05,2014-02-13,12,13FEB2014,COMPLETED,COMPLETED,,13
CDISCPILOT01,01-708-1353,1353,708,708,Xanomeline Low Dose,Xanomeline Low Dose,54,Xanomeline Low Dose,54,04JUL2013,28AUG2013,56,54,3024,87,>80,3,YEARS,BLACK OR AFRICAN AMERICAN,3,F,NOT HISPANIC OR LATINO,Y,Y,Y,Y,N,N,Y,Y,,20.3,<25,157.5,50.4,16,06AUG2010,34,>=12,17JUN2013,2013-07-04,2013-09-10,8,10SEP2013,ADVERSE EVENT,DISCONTINUED,Adverse Event,16
CDISCPILOT01,01-708-1372,1372,708,708,Xanomeline High Dose,Xanomeline High Dose,81,Xanomeline High Dose,81,12APR2013,19APR2013,8,54,432,84,>80,3,YEARS,WHITE,6,M,NOT HISPANIC OR LATINO,Y,Y,N,N,N,N,Y,,,30.7,>=30,170.2,88.9,8,17SEP2007,67,>=12,03APR2013,2013-04-12,2013-05-10,4,10MAY2013,PROTOCOL VIOLATION,DISCONTINUED,Protocol Violation,17
CDISCPILOT01,01-708-1378,1378,708,708,Placebo,Placebo,0,Placebo,0,03SEP2013,28JAN2014,148,0,0,67,65-80,2,YEARS,BLACK OR AFRICAN AMERICAN,3,M,NOT HISPANIC OR LATINO,Y,Y,Y,Y,Y,N,Y,,,24.3,<25,170.2,70.3,13,16MAR2009,53,>=12,24AUG2013,2013-09-03,2014-01-28,11,28JAN2014,STUDY TERMINATED BY SPONSOR,DISCONTINUED,Sponsor Decision,20
CDISCPILOT01,01-708-1406,1406,708,708,Xanomeline High Dose,Xanomeline High Dose,81,Xanomeline High Dose,81,26DEC2013,02JUL2014,189,76.6,14472,71,65-80,2,YEARS,WHITE,6,F,NOT HISPANIC OR LATINO,Y,Y,Y,Y,Y,Y,,,,22.1,<25,157.5,54.9,13,24JUN2010,42,>=12,06DEC2013,2013-12-26,2014-07-02,12,02JUL2014,COMPLETED,COMPLETED,,15
CDISCPILOT01,01-708-1428,1428,708,708,Xanomeline Low Dose,Xanomeline Low Dose,54,Xanomeline Low Dose,54,09NOV2013,14DEC2013,36,54,1944,84,>80,3,YEARS,WHITE,6,F,NOT HISPANIC OR LATINO,Y,Y,Y,Y,N,N,Y,Y,,23.8,<25,157.5,59,8,27OCT2010,37,>=12,02NOV2013,2013-11-09,2014-01-31,8,31JAN2014,ADVERSE EVENT,DISCONTINUED,Adverse Event,19
CDISCPILOT01,01-709-1001,1001,709,709,Placebo,Placebo,0,Placebo,0,08OCT2013,08APR2014,183,0,0,76,65-80,2,YEARS,WHITE,6,F,NOT HISPANIC OR LATINO,Y,Y,Y,Y,Y,Y,,,,25.2,25-<30,170.2,73,12,30JAN2011,32,>=12,20SEP2013,2013-10-08,2014-04-08,12,08APR2014,COMPLETED,COMPLETED,,15
CDISCPILOT01,01-709-1007,1007,709,709,Xanomeline Low Dose,Xanomeline Low Dose,54,Xanomeline Low Dose,54,31JUL2012,28AUG2012,29,54,1566,54,<65,1,YEARS,WHITE,6,F,NOT HISPANIC OR LATINO,Y,Y,N,N,N,N,Y,Y,,23.8,<25,158.8,59.9,21,28FEB2007,65,>=12,21JUL2012,2012-07-31,2012-09-01,5,01SEP2012,ADVERSE EVENT,DISCONTINUED,Adverse Event,10
CDISCPILOT01,01-709-1020,1020,709,709,Xanomeline Low Dose,Xanomeline Low Dose,54,Xanomeline Low Dose,54,01DEC2012,01JUN2013,183,54,9882,72,65-80,2,YEARS,WHITE,6,F,NOT HISPANIC OR LATINO,Y,Y,Y,Y,Y,Y,,,,25.9,25-<30,144.8,54.4,12,26FEB2009,45,>=12,22NOV2012,2012-12-01,2013-06-01,12,01JUN2013,COMPLETED,COMPLETED,,15
CDISCPILOT01,01-709-1029,1029,709,709,Xanomeline High Dose,Xanomeline High Dose,81,Xanomeline High Dose,81,25DEC2012,26JUN2013,184,76.6,14094,82,>80,3,YEARS,WHITE,6,M,NOT HISPANIC OR LATINO,Y,Y,Y,Y,Y,Y,,,,23.1,<25,172.7,69,20,02JUN2009,42,>=12,10DEC2012,2012-12-25,2013-06-26,12,26JUN2013,COMPLETED,COMPLETED,,16
CDISCPILOT01,01-709-1081,1081,709,709,Xanomeline Low Dose,Xanomeline Low Dose,54,Xanomeline Low Dose,54,18JAN2014,27APR2014,100,54,5400,86,>80,3,YEARS,WHITE,6,F,NOT HISPANIC OR LATINO,Y,Y,Y,Y,Y,N,Y,Y,,23.5,<25,154.9,56.5,9,06AUG2011,29,>=12,09JAN2014,2014-01-18,2014-05-10,10,10MAY2014,ADVERSE EVENT,DISCONTINUED,Adverse Event,21
CDISCPILOT01,01-709-1088,1088,709,709,Placebo,Placebo,0,Placebo,0,12APR2014,09OCT2014,181,0,0,69,65-80,2,YEARS,WHITE,6,M,NOT HISPANIC OR LATINO,Y,Y,Y,Y,Y,Y,,,,24.8,<25,179.1,79.4,16,25FEB2012,25,>=12,30MAR2014,2014-04-12,2014-10-09,12,09OCT2014,COMPLETED,COMPLETED,,23
CDISCPILOT01,01-709-1099,1099,709,709,Xanomeline High Dose,Xanomeline High Dose,81,Xanomeline High Dose,81,25OCT2013,25APR2014,183,76.1,13932,79,65-80,2,YEARS,WHITE,6,F,NOT HISPANIC OR LATINO,Y,Y,Y,Y,Y,Y,,,,19.6,<25,165.1,53.5,12,20APR2009,54,>=12,14OCT2013,2013-10-25,2014-04-25,12,25APR2014,COMPLETED,COMPLETED,,11
CDISCPILOT01,01-709-1102,1102,709,709,Xanomeline Low Dose,Xanomeline Low Dose,54,Xanomeline Low Dose,54,15JAN2013,27MAR2013,72,54,3888,71,65-80,2,YEARS,WHITE,6,F,NOT HISPANIC OR LATINO,Y,Y,Y,Y,N,N,Y,Y,,32.1,>=30,166.4,88.9,14,13JUL2009,42,>=12,07JAN2013,2013-01-15,2013-03-31,9,31MAR2013,ADVERSE EVENT,DISCONTINUED,Adverse Event,16
CDISCPILOT01,01-709-1168,1168,709,709,Xanomeline High Dose,Xanomeline High Dose,81,Xanomeline High Dose,81,02AUG2013,26SEP2013,56,73.3,4104,72,65-80,2,YEARS,WHITE,6,F,NOT HISPANIC OR LATINO,Y,Y,Y,Y,N,N,Y,Y,,27.6,25-<30,149.9,62.1,12,29OCT2009,45,>=12,25JUL2013,2013-08-02,2013-09-27,8,27SEP2013,ADVERSE EVENT,DISCONTINUED,Adverse Event,20
CDISCPILOT01,01-709-1217,1217,709,709,Xanomeline Low Dose,Xanomeline Low Dose,54,Xanomeline Low Dose,54,04MAR2013,11JUN2013,100,54,5400,77,65-80,2,YEARS,WHITE,6,M,NOT HISPANIC OR LATINO,Y,Y,Y,Y,Y,N,Y,Y,,23.1,<25,171.5,68,6,11OCT2008,52,>=12,16FEB2013,2013-03-04,2013-06-25,10,25JUN2013,ADVERSE EVENT,DISCONTINUED,Adverse Event,14
CDISCPILOT01,01-709-1238,1238,709,709,Xanomeline High Dose,Xanomeline High Dose,81,Xanomeline High Dose,81,15MAY2013,06AUG2013,84,76.2,6399,69,65-80,2,YEARS,WHITE,6,M,NOT HISPANIC OR LATINO,Y,Y,Y,Y,N,N,Y,Y,,28.5,25-<30,170.2,82.6,8,13OCT2011,19,>=12,02MAY2013,2013-05-15,2013-08-07,9,07AUG2013,ADVERSE EVENT,DISCONTINUED,Adverse Event,24
CDISCPILOT01,01-709-1259,1259,709,709,Placebo,Placebo,0,Placebo,0,26JAN2013,13JUN2013,139,0,0,82,>80,3,YEARS,WHITE,6,M,NOT HISPANIC OR LATINO,Y,Y,Y,Y,Y,N,Y,,,21.9,<25,172.7,65.3,18,06AUG2008,53,>=12,13JAN2013,2013-01-26,2013-06-13,11,13JUN2013,LACK OF EFFICACY,DISCONTINUED,Lack of Efficacy,20
CDISCPILOT01,01-709-1285,1285,709,709,Xanomeline Low Dose,Xanomeline Low Dose,54,Xanomeline Low Dose,54,24MAR2013,23MAY2013,61,54,3294,87,>80,3,YEARS,WHITE,6,M,NOT HISPANIC OR LATINO,Y,Y,Y,Y,N,N,Y,,,23.1,<25,167.6,64.9,6,18SEP2009,42,>=12,17MAR2013,2013-03-24,2013-05-31,9,31MAY2013,STUDY TERMINATED BY SPONSOR,DISCONTINUED,Sponsor Decision,16
CDISCPILOT01,01-709-1301,1301,709,709,Placebo,Placebo,0,Placebo,0,19JUL2013,17JAN2014,183,0,0,62,<65,1,YEARS,WHITE,6,F,NOT HISPANIC OR LATINO,Y,Y,Y,Y,Y,Y,,,,23.6,<25,146.1,50.4,10,04FEB2009,53,>=12,14JUL2013,2013-07-19,2014-01-17,12,17JAN2014,COMPLETED,COMPLETED,,10
CDISCPILOT01,01-709-1306,1306,709,709,Placebo,Placebo,0,Placebo,0,03FEB2014,16JUN2014,134,0,0,60,<65,1,YEARS,WHITE,6,F,NOT HISPANIC OR LATINO,Y,Y,Y,Y,Y,N,Y,Y,,18.5,<25,154.9,44.5,12,02FEB2009,59,>=12,19JAN2014,2014-02-03,2014-06-25,11,25JUN2014,ADVERSE EVENT,DISCONTINUED,Adverse Event,21
CDISCPILOT01,01-709-1309,1309,709,709,Xanomeline High Dose,Xanomeline High Dose,81,Xanomeline High Dose,81,19JUN2013,19DEC2013,184,77,14175,65,65-80,2,YEARS,WHITE,6,M,NOT HISPANIC OR LATINO,Y,Y,Y,Y,Y,Y,,,,24.8,<25,177.8,78.5,16,21DEC2009,42,>=12,09JUN2013,2013-06-19,2013-12-19,12,19DEC2013,COMPLETED,COMPLETED,,17
CDISCPILOT01,01-709-1312,1312,709,709,Placebo,Placebo,0,Placebo,0,20APR2014,19OCT2014,183,0,0,68,65-80,2,YEARS,WHITE,6,F,NOT HISPANIC OR LATINO,Y,Y,Y,Y,Y,Y,,,,20.9,<25,160,53.5,13,30JUL2010,45,>=12,13APR2014,2014-04-20,2014-10-19,12,19OCT2014,COMPLETED,COMPLETED,,14
CDISCPILOT01,01-709-1326,1326,709,709,Xanomeline Low Dose,Xanomeline Low Dose,54,Xanomeline Low Dose,54,05APR2013,02OCT2013,181,54,9774,75,65-80,2,YEARS,WHITE,6,F,NOT HISPANIC OR LATINO,Y,Y,Y,Y,Y,Y,,,,28.7,25-<30,161.3,74.8,16,19SEP2010,30,>=12,21MAR2013,2013-04-05,2013-10-02,12,02OCT2013,COMPLETED,COMPLETED,,11
CDISCPILOT01,01-709-1329,1329,709,709,Xanomeline High Dose,Xanomeline High Dose,81,Xanomeline High Dose,81,15AUG2013,25AUG2013,11,54,594,70,65-80,2,YEARS,WHITE,6,M,NOT HISPANIC OR LATINO,Y,Y,Y,N,N,N,Y,,,26.5,25-<30,170.2,76.7,16,08MAR2009,53,>=12,01AUG2013,2013-08-15,2013-08-29,4,29AUG2013,WITHDRAWAL BY SUBJECT,DISCONTINUED,Withdrew Consent,10
CDISCPILOT01,01-709-1339,1339,709,709,Placebo,Placebo,0,Placebo,0,23DEC2012,24JUN2013,184,0,0,81,>80,3,YEARS,WHITE,6,M,NOT HISPANIC OR LATINO,Y,Y,Y,Y,Y,Y,,,,25.4,25-<30,175.3,78,16,03MAR2010,33,>=12,15DEC2012,2012-12-23,2013-06-24,12,24JUN2013,COMPLETED,COMPLETED,,23
CDISCPILOT01,01-709-1424,1424,709,709,Xanomeline High Dose,Xanomeline High Dose,81,Xanomeline High Dose,81,03MAR2013,07MAR2013,5,54,270,77,65-80,2,YEARS,WHITE,6,M,NOT HISPANIC OR LATINO,Y,Y,Y,N,N,N,Y,Y,,22.6,<25,174,68.5,16,12SEP2007,65,>=12,15FEB2013,2013-03-03,2013-03-08,4,08MAR2013,ADVERSE EVENT,DISCONTINUED,Adverse Event,18
CDISCPILOT01,01-710-1002,1002,710,710,Xanomeline Low Dose,Xanomeline Low Dose,54,Xanomeline Low Dose,54,14JAN2014,18JAN2014,5,54,270,88,>80,3,YEARS,WHITE,6,M,NOT HISPANIC OR LATINO,Y,Y,Y,N,N,N,Y,Y,,25.8,25-<30,165.1,70.3,12,08JAN2008,71,>=12,30DEC2013,2014-01-14,2014-01-18,4,18JAN2014,ADVERSE EVENT,DISCONTINUED,Adverse Event,17
CDISCPILOT01,01-710-1006,1006,710,710,Xanomeline High Dose,Xanomeline High Dose,81,Xanomeline High Dose,81,10FEB2013,09AUG2013,181,77.1,13959,77,65-80,2,YEARS,WHITE,6,M,NOT HISPANIC OR LATINO,Y,Y,Y,Y,Y,Y,,,,25.1,25-<30,170.2,72.6,12,10FEB2012,11,<12,27JAN2013,2013-02-10,2013-08-10,12,10AUG2013,COMPLETED,COMPLETED,,12
CDISCPILOT01,01-710-1021,1021,710,710,Xanomeline High Dose,Xanomeline High Dose,81,Xanomeline High Dose,81,27SEP2013,29OCT2013,33,68.7,2268,79,65-80,2,YEARS,BLACK OR AFRICAN AMERICAN,3,M,NOT HISPANIC OR LATINO,Y,Y,N,N,N,N,Y,Y,,21.3,<25,162.6,56.3,8,09JUL2012,14,>=12,19SEP2013,2013-09-27,2013-11-12,7,12NOV2013,ADVERSE EVENT,DISCONTINUED,Adverse Event,11
CDISCPILOT01,01-710-1027,1027,710,710,Placebo,Placebo,0,Placebo,0,28FEB2014,29AUG2014,183,0,0,83,>80,3,YEARS,WHITE,6,M,NOT HISPANIC OR LATINO,Y,Y,Y,Y,Y,Y,,,,24.4,<25,170.2,70.8,12,04FEB2012,24,>=12,03FEB2014,2014-02-28,2014-08-29,12,29AUG2014,COMPLETED,COMPLETED,,20
CDISCPILOT01,01-710-1045,1045,710,710,Xanomeline Low Dose,Xanomeline Low Dose,54,Xanomeline Low Dose,54,03JUN2013,13AUG2013,72,54,3888,83,>80,3,YEARS,WHITE,6,F,NOT HISPANIC OR LATINO,Y,Y,Y,Y,N,N,Y,Y,,22.0,<25,162.6,58.1,12,12MAY2010,36,>=12,20MAY2013,2013-06-03,2013-08-17,9,17AUG2013,ADVERSE EVENT,DISCONTINUED,Adverse Event,14
CDISCPILOT01,01-710-1053,1053,710,710,Xanomeline Low Dose,Xanomeline Low Dose,54,Xanomeline Low Dose,54,26DEC2012,10FEB2013,47,54,2538,84,>80,3,YEARS,WHITE,6,F,NOT HISPANIC OR LATINO,Y,Y,Y,Y,N,N,Y,Y,,20.8,<25,157.5,51.7,12,04NOV2011,13,>=12,15DEC2012,2012-12-26,2013-02-15,8,15FEB2013,ADVERSE EVENT,DISCONTINUED,Adverse Event,20
CDISCPILOT01,01-710-1060,1060,710,710,Placebo,Placebo,0,Placebo,0,01JAN2013,05JUL2013,186,0,0,82,>80,3,YEARS,WHITE,6,M,NOT HISPANIC OR LATINO,Y,Y,Y,Y,Y,Y,,,,21.0,<25,182.9,70.3,16,14SEP2010,27,>=12,24DEC2012,2013-01-01,2013-07-05,12,05JUL2013,COMPLETED,COMPLETED,,23
CDISCPILOT01,01-710-1070,1070,710,710,Xanomeline High Dose,Xanomeline High Dose,81,Xanomeline High Dose,81,08SEP2012,22JAN2013,137,78,10692,85,>80,3,YEARS,WHITE,6,F,NOT HISPANIC OR LATINO,Y,Y,Y,Y,Y,N,Y,Y,,21.8,<25,149.9,49,10,08SEP2010,23,>=12,28AUG2012,2012-09-08,2013-02-23,11,23FEB2013,ADVERSE EVENT,DISCONTINUED,Adverse Event,10
CDISCPILOT01,01-710-1077,1077,710,710,Placebo,Placebo,0,Placebo,0,17NOV2013,18MAY2014,183,0,0,76,65-80,2,YEARS,WHITE,6,F,NOT HISPANIC OR LATINO,Y,Y,Y,Y,Y,Y,,,,18.5,<25,162.6,49,12,11JUN2011,29,>=12,03NOV2013,2013-11-17,2014-05-18,12,18MAY2014,COMPLETED,COMPLETED,,14
CDISCPILOT01,01-710-1078,1078,710,710,Placebo,Placebo,0,Placebo,0,17SEP2013,23MAR2014,188,0,0,81,>80,3,YEARS,WHITE,6,F,NOT HISPANIC OR LATINO,Y,Y,Y,Y,Y,Y,,,,18.0,<25,152.4,41.7,12,25AUG2011,25,>=12,06SEP2013,2013-09-17,2014-03-23,12,23MAR2014,COMPLETED,COMPLETED,,21
CDISCPILOT01,01-710-1083,1083,710,710,Placebo,Placebo,0,Placebo,0,22JUL2013,01AUG2013,11,0,0,89,>80,3,YEARS,WHITE,6,F,NOT HISPANIC OR LATINO,Y,Y,N,N,N,N,Y,,Y,19.0,<25,157.5,47.2,14,19JUL2011,24,>=12,09JUL2013,2013-07-22,2013-08-03,4,03AUG2013,DEATH,DISCONTINUED,Death,14
CDISCPILOT01,01-710-1137,1137,710,710,Xanomeline High Dose,Xanomeline High Dose,81,Xanomeline High Dose,81,11OCT2013,13NOV2013,34,69.1,2349,79,65-80,2,YEARS,BLACK OR AFRICAN AMERICAN,3,F,NOT HISPANIC OR LATINO,Y,Y,N,N,N,N,Y,Y,,24.0,<25,165.1,65.3,16,12OCT2009,48,>=12,03OCT2013,2013-10-11,2013-11-13,7,13NOV2013,ADVERSE EVENT,DISCONTINUED,Adverse Event,18
CDISCPILOT01,01-710-1142,1142,710,710,Xanomeline High Dose,Xanomeline High Dose,81,Xanomeline High Dose,81,02OCT2012,20OCT2012,19,59.7,1134,76,65-80,2,YEARS,WHITE,6,F,NOT HISPANIC OR LATINO,Y,Y,Y,N,N,N,Y,Y,,24.8,<25,152.4,57.6,12,26SEP2010,24,>=12,12SEP2012,2012-10-02,2012-10-23,5,23OCT2012,ADVERSE EVENT,DISCONTINUED,Adverse Event,23
CDISCPILOT01,01-710-1154,1154,710,710,Xanomeline Low Dose,Xanomeline Low Dose,54,Xanomeline Low Dose,54,29MAR2014,27APR2014,30,54,1620,84,>80,3,YEARS,WHITE,6,M,HISPANIC OR LATINO,Y,Y,Y,N,N,N,Y,Y,,32.3,>=30,160,82.6,3,25FEB2008,73,>=12,08MAR2014,2014-03-29,2014-05-09,7,09MAY2014,ADVERSE EVENT,DISCONTINUED,Adverse Event,13
CDISCPILOT01,01-710-1166,1166,710,710,Xanomeline Low Dose,Xanomeline Low Dose,54,Xanomeline Low Dose,54,30NOV2012,19MAR2013,110,54,5940,81,>80,3,YEARS,WHITE,6,F,NOT HISPANIC OR LATINO,Y,Y,Y,Y,Y,N,Y,Y,,22.1,<25,157.5,54.9,12,10NOV2007,60,>=12,10NOV2012,2012-11-30,2013-03-30,10,30MAR2013,ADVERSE EVENT,DISCONTINUED,Adverse Event,18
CDISCPILOT01,01-710-1183,1183,710,710,Placebo,Placebo,0,Placebo,0,16NOV2013,17MAY2014,183,0,0,80,65-80,2,YEARS,WHITE,6,F,NOT HISPANIC OR LATINO,Y,Y,Y,Y,Y,Y,,,,21.2,<25,149.9,47.6,8,25OCT2012,12,>=12,24OCT2013,2013-11-16,2014-05-17,12,17MAY2014,COMPLETED,COMPLETED,,16
CDISCPILOT01,01-710-1187,1187,710,710,Xanomeline High Dose,Xanomeline High Dose,81,Xanomeline High Dose,81,10NOV2012,12MAY2013,184,76.7,14121,78,65-80,2,YEARS,WHITE,6,F,NOT HISPANIC OR LATINO,Y,Y,Y,Y,Y,Y,,,,20.8,<25,154.9,49.9,8,22OCT2010,24,>=12,26OCT2012,2012-11-10,2013-05-12,12,12MAY2013,COMPLETED,COMPLETED,,11
CDISCPILOT01,01-710-1235,1235,710,710,Xanomeline Low Dose,Xanomeline Low Dose,54,Xanomeline Low Dose,54,26SEP2012,27MAR2013,183,54,9882,56,<65,1,YEARS,WHITE,6,F,HISPANIC OR LATINO,Y,Y,Y,Y,Y,Y,,,,33.0,>=30,170.2,95.7,16,03DEC2009,33,>=12,13SEP2012,2012-09-26,2013-03-27,12,27MAR2013,COMPLETED,COMPLETED,,20
CDISCPILOT01,01-710-1249,1249,710,710,Xanomeline High Dose,Xanomeline High Dose,81,Xanomeline High Dose,81,28DEC2013,28JUN2014,183,76.7,14040,79,65-80,2,YEARS,WHITE,6,M,NOT HISPANIC OR LATINO,Y,Y,Y,Y,Y,Y,,,,25.4,25-<30,177.8,80.3,12,27DEC2008,60,>=12,19DEC2013,2013-12-28,2014-06-28,12,28JUN2014,COMPLETED,COMPLETED,,20
CDISCPILOT01,01-710-1264,1264,710,710,Placebo,Placebo,0,Placebo,0,13JUN2013,11OCT2013,121,0,0,78,65-80,2,YEARS,WHITE,6,M,NOT HISPANIC OR LATINO,Y,Y,Y,Y,Y,N,Y,Y,,29.1,25-<30,167.6,81.7,12,06JUN2010,36,>=12,02JUN2013,2013-06-13,2013-10-12,11,12OCT2013,ADVERSE EVENT,DISCONTINUED,Adverse Event,14
CDISCPILOT01,01-710-1270,1270,710,710,Xanomeline Low Dose,Xanomeline Low Dose,54,Xanomeline Low Dose,54,12FEB2014,01MAR2014,18,54,972,83,>80,3,YEARS,WHITE,6,F,NOT HISPANIC OR LATINO,Y,Y,Y,N,N,N,Y,Y,,25.6,25-<30,149.9,57.6,12,19JUN2012,20,>=12,01FEB2014,2014-02-12,2014-03-01,4,01MAR2014,ADVERSE EVENT,DISCONTINUED,Adverse Event,11
CDISCPILOT01,01-710-1271,1271,710,710,Placebo,Placebo,0,Placebo,0,27SEP2012,21NOV2012,56,0,0,86,>80,3,YEARS,WHITE,6,F,NOT HISPANIC OR LATINO,Y,Y,N,Y,N,N,Y,Y,,21.2,<25,149.9,47.6,16,05SEP2011,12,>=12,04SEP2012,2012-09-27,2012-12-02,8,02DEC2012,ADVERSE EVENT,DISCONTINUED,Adverse Event,18
CDISCPILOT01,01-710-1278,1278,710,710,Xanomeline High Dose,Xanomeline High Dose,81,Xanomeline High Dose,81,24DEC2012,26FEB2013,65,74.8,4860,81,>80,3,YEARS,WHITE,6,M,NOT HISPANIC OR LATINO,Y,Y,Y,Y,N,N,Y,Y,,22.7,<25,177.8,71.7,20,08DEC2011,12,>=12,13DEC2012,2012-12-24,2013-03-03,9,03MAR2013,ADVERSE EVENT,DISCONTINUED,Adverse Event,14
CDISCPILOT01,01-710-1300,1300,710,710,Xanomeline Low Dose,Xanomeline Low Dose,54,Xanomeline Low Dose,54,15DEC2012,15FEB2013,63,54,3402,78,65-80,2,YEARS,WHITE,6,F,NOT HISPANIC OR LATINO,Y,Y,Y,Y,N,N,Y,Y,,20.1,<25,152.4,46.7,12,16NOV2011,13,>=12,04DEC2012,2012-12-15,2013-02-19,9,19FEB2013,ADVERSE EVENT,DISCONTINUED,Adverse Event,13
CDISCPILOT01,01-710-1314,1314,710,710,Placebo,Placebo,0,Placebo,0,24APR2013,23MAY2013,30,0,0,78,65-80,2,YEARS,WHITE,6,F,NOT HISPANIC OR LATINO,Y,Y,N,N,N,N,Y,,,22.6,<25,137.2,42.6,12,14APR2011,24,>=12,21APR2013,2013-04-24,2013-05-25,6,25MAY2013,WITHDRAWAL BY SUBJECT,DISCONTINUED,Withdrew Consent,12
CDISCPILOT01,01-710-1315,1315,710,710,Placebo,Placebo,0,Placebo,0,27FEB2013,06JUL2013,130,0,0,83,>80,3,YEARS,WHITE,6,F,NOT HISPANIC OR LATINO,Y,Y,Y,Y,Y,N,Y,Y,,24.2,<25,152.4,56.3,12,20AUG2011,18,>=12,12FEB2013,2013-02-27,2013-07-16,11,16JUL2013,ADVERSE EVENT,DISCONTINUED,Adverse Event,12
CDISCPILOT01,01-710-1354,1354,710,710,Xanomeline High Dose,Xanomeline High Dose,81,Xanomeline High Dose,81,11NOV2012,01MAY2013,172,77.1,13257,73,65-80,2,YEARS,WHITE,6,M,NOT HISPANIC OR LATINO,Y,Y,Y,Y,Y,Y,,,,26.7,25-<30,182.9,89.4,16,06NOV2011,11,<12,29OCT2012,2012-11-11,2013-05-01,12,01MAY2013,COMPLETED,COMPLETED,,23
CDISCPILOT01,01-710-1358,1358,710,710,Xanomeline Low Dose,Xanomeline Low Dose,54,Xanomeline Low Dose,54,17SEP2012,09FEB2013,146,54,7884,82,>80,3,YEARS,WHITE,6,M,NOT HISPANIC OR LATINO,Y,Y,Y,Y,Y,Y,Y,,,31.1,>=30,162.6,82.1,6,29AUG2009,37,>=12,02SEP2012,2012-09-17,2013-03-12,12,12MAR2013,WITHDRAWAL BY SUBJECT,DISCONTINUED,Withdrew Consent,13
CDISCPILOT01,01-710-1368,1368,710,710,Placebo,Placebo,0,Placebo,0,23OCT2013,24APR2014,184,0,0,88,>80,3,YEARS,WHITE,6,F,NOT HISPANIC OR LATINO,Y,Y,Y,Y,Y,Y,,,,15.7,<25,147.3,34,12,12OCT2011,24,>=12,21OCT2013,2013-10-23,2014-04-24,12,24APR2014,COMPLETED,COMPLETED,,13
CDISCPILOT01,01-710-1385,1385,710,710,Xanomeline Low Dose,Xanomeline Low Dose,54,Xanomeline Low Dose,54,29OCT2012,18FEB2013,113,54,6102,77,65-80,2,YEARS,WHITE,6,M,NOT HISPANIC OR LATINO,Y,Y,Y,Y,Y,N,Y,Y,,25.2,25-<30,182.9,84.4,18,28OCT2011,12,>=12,21OCT2012,2012-10-29,2013-02-18,10,18FEB2013,ADVERSE EVENT,DISCONTINUED,Adverse Event,14
CDISCPILOT01,01-710-1408,1408,710,710,Xanomeline High Dose,Xanomeline High Dose,81,Xanomeline High Dose,81,05JAN2013,12JUL2013,189,76.1,14391,80,65-80,2,YEARS,WHITE,6,M,NOT HISPANIC OR LATINO,Y,Y,Y,Y,Y,Y,,,,34.2,>=30,177.8,108,12,14DEC2007,60,>=12,26DEC2012,2013-01-05,2013-07-12,12,12JUL2013,COMPLETED,COMPLETED,,23
CDISCPILOT01,01-711-1012,1012,711,900,Xanomeline High Dose,Xanomeline High Dose,81,Xanomeline High Dose,81,03APR2013,29APR2013,27,66,1782,67,65-80,2,YEARS,WHITE,6,F,NOT HISPANIC OR LATINO,Y,Y,Y,N,N,N,Y,Y,,28.0,25-<30,170.2,81,12,25JUL2011,20,>=12,20MAR2013,2013-04-03,2013-05-02,5,02MAY2013,ADVERSE EVENT,DISCONTINUED,Adverse Event,18
CDISCPILOT01,01-711-1036,1036,711,900,Placebo,Placebo,0,Placebo,0,29JUL2012,10FEB2013,197,0,0,70,65-80,2,YEARS,BLACK OR AFRICAN AMERICAN,3,M,NOT HISPANIC OR LATINO,Y,Y,Y,Y,Y,Y,,,,23.4,<25,172,69.2,9,05MAR2009,40,>=12,20JUL2012,2012-07-29,2013-02-10,12,10FEB2013,COMPLETED,COMPLETED,,23
CDISCPILOT01,01-711-1143,1143,711,900,Xanomeline Low Dose,Xanomeline Low Dose,54,Xanomeline Low Dose,54,03APR2013,30MAY2013,58,54,3132,76,65-80,2,YEARS,WHITE,6,F,NOT HISPANIC OR LATINO,Y,Y,Y,Y,N,N,Y,Y,,24.3,<25,163.1,64.6,12,29APR2011,23,>=12,30MAR2013,2013-04-03,2013-06-01,9,01JUN2013,ADVERSE EVENT,DISCONTINUED,Adverse Event,23
CDISCPILOT01,01-711-1433,1433,711,900,Xanomeline High Dose,Xanomeline High Dose,81,Xanomeline High Dose,81,27JAN2013,05FEB2013,10,54,540,84,>80,3,YEARS,WHITE,6,F,NOT HISPANIC OR LATINO,Y,Y,N,N,N,N,Y,Y,,20.9,<25,157.5,51.9,12,02FEB2012,11,<12,23JAN2013,2013-01-27,2013-02-06,4,06FEB2013,ADVERSE EVENT,DISCONTINUED,Adverse Event,18
CDISCPILOT01,01-713-1043,1043,713,713,Xanomeline Low Dose,Xanomeline Low Dose,54,Xanomeline Low Dose,54,15SEP2013,24MAR2014,191,54,10314,78,65-80,2,YEARS,WHITE,6,F,NOT HISPANIC OR LATINO,Y,Y,Y,Y,Y,Y,,,,18.8,<25,165.1,51.3,8,09DEC2011,20,>=12,17AUG2013,2013-09-15,2014-03-24,12,24MAR2014,COMPLETED,COMPLETED,,16
CDISCPILOT01,01-713-1073,1073,713,713,Xanomeline Low Dose,Xanomeline Low Dose,54,Xanomeline Low Dose,54,30MAR2014,05OCT2014,190,54,10260,74,65-80,2,YEARS,BLACK OR AFRICAN AMERICAN,3,F,NOT HISPANIC OR LATINO,Y,Y,Y,Y,Y,Y,,,,20.3,<25,167.6,56.9,6,19FEB2013,13,>=12,15MAR2014,2014-03-30,2014-10-05,12,05OCT2014,COMPLETED,COMPLETED,,11
CDISCPILOT01,01-713-1106,1106,713,713,Xanomeline High Dose,Xanomeline High Dose,81,Xanomeline High Dose,81,31OCT2012,06MAY2013,188,76.7,14418,74,65-80,2,YEARS,WHITE,6,M,NOT HISPANIC OR LATINO,Y,Y,Y,Y,Y,Y,,,,19.6,<25,164.8,53.1,16,16JAN2010,33,>=12,03OCT2012,2012-10-31,2013-05-06,12,06MAY2013,COMPLETED,COMPLETED,,23
CDISCPILOT01,01-713-1141,1141,713,713,Xanomeline High Dose,Xanomeline High Dose,81,Xanomeline High Dose,81,31MAY2013,01JUL2013,32,68.3,2187,79,65-80,2,YEARS,WHITE,6,M,NOT HISPANIC OR LATINO,Y,Y,N,N,N,N,Y,Y,,23.5,<25,170,68,13,24NOV2006,78,>=12,23MAY2013,2013-05-31,2013-08-06,7,06AUG2013,ADVERSE EVENT,DISCONTINUED,Adverse Event,18
CDISCPILOT01,01-713-1179,1179,713,713,Placebo,Placebo,0,Placebo,0,09AUG2013,05FEB2014,181,0,0,64,<65,1,YEARS,WHITE,6,F,NOT HISPANIC OR LATINO,Y,Y,Y,Y,Y,Y,,,,20.3,<25,165.1,55.3,12,04MAY2011,26,>=12,11JUL2013,2013-08-09,2014-02-05,12,05FEB2014,COMPLETED,COMPLETED,,21
CDISCPILOT01,01-713-1209,1209,713,713,Xanomeline High Dose,Xanomeline High Dose,81,Xanomeline High Dose,81,27MAY2013,22NOV2013,180,77,13851,77,65-80,2,YEARS,WHITE,6,F,NOT HISPANIC OR LATINO,Y,Y,Y,Y,Y,Y,,,,19.2,<25,165.1,52.2,12,14JUL2010,34,>=12,16MAY2013,2013-05-27,2013-11-22,12,22NOV2013,COMPLETED,COMPLETED,,23
CDISCPILOT01,01-713-1256,1256,713,713,Placebo,Placebo,0,Placebo,0,19SEP2012,25MAR2013,188,0,0,71,65-80,2,YEARS,WHITE,6,M,NOT HISPANIC OR LATINO,Y,Y,Y,Y,Y,Y,,,,23.7,<25,180.3,77.1,16,08FEB2009,43,>=12,10SEP2012,2012-09-19,2013-03-25,12,25MAR2013,COMPLETED,COMPLETED,,13
CDISCPILOT01,01-713-1269,1269,713,713,Placebo,Placebo,0,Placebo,0,27JAN2014,28JUL2014,183,0,0,73,65-80,2,YEARS,WHITE,6,M,NOT HISPANIC OR LATINO,Y,Y,Y,Y,Y,Y,,,,21.9,<25,185.4,75.3,16,21MAR2012,22,>=12,14JAN2014,2014-01-27,2014-07-28,12,28JUL2014,COMPLETED,COMPLETED,,23
CDISCPILOT01,01-713-1448,1448,713,713,Xanomeline Low Dose,Xanomeline Low Dose,54,Xanomeline Low Dose,54,19JAN2014,16MAY2014,118,54,6372,71,65-80,2,YEARS,WHITE,6,F,NOT HISPANIC OR LATINO,Y,Y,Y,Y,Y,N,Y,Y,,25.5,25-<30,175.3,78.5,13,09APR2008,69,>=12,05JAN2014,2014-01-19,2014-05-17,10,17MAY2014,ADVERSE EVENT,DISCONTINUED,Adverse Event,23
CDISCPILOT01,01-714-1035,1035,714,900,Placebo,Placebo,0,Placebo,0,17APR2014,16OCT2014,183,0,0,88,>80,3,YEARS,WHITE,6,F,NOT HISPANIC OR LATINO,Y,Y,Y,Y,Y,Y,,,,24.6,<25,148.6,54.4,12,02APR2011,36,>=12,03APR2014,2014-04-17,2014-10-16,12,16OCT2014,COMPLETED,COMPLETED,,17
CDISCPILOT01,01-714-1068,1068,714,900,Xanomeline Low Dose,Xanomeline Low Dose,54,Xanomeline Low Dose,54,08AUG2013,08OCT2013,62,54,3348,79,65-80,2,YEARS,WHITE,6,F,NOT HISPANIC OR LATINO,Y,Y,Y,Y,N,N,Y,Y,,23.0,<25,153.7,54.4,9,24JUL2012,12,>=12,31JUL2013,2013-08-08,2013-10-16,9,16OCT2013,ADVERSE EVENT,DISCONTINUED,Adverse Event,18
CDISCPILOT01,01-714-1195,1195,714,900,Xanomeline Low Dose,Xanomeline Low Dose,54,Xanomeline Low Dose,54,26APR2013,23OCT2013,181,54,9774,75,65-80,2,YEARS,WHITE,6,M,NOT HISPANIC OR LATINO,Y,Y,Y,Y,Y,Y,,,,28.7,25-<30,172.7,85.7,16,30APR2011,24,>=12,16APR2013,2013-04-26,2013-10-23,12,23OCT2013,COMPLETED,COMPLETED,,19
CDISCPILOT01,01-714-1288,1288,714,900,Xanomeline High Dose,Xanomeline High Dose,81,Xanomeline High Dose,81,04DEC2013,17JUN2014,196,76.2,14931,77,65-80,2,YEARS,BLACK OR AFRICAN AMERICAN,3,M,NOT HISPANIC OR LATINO,Y,Y,Y,Y,Y,Y,,,,18.7,<25,162.6,49.4,6,11NOV2009,48,>=12,24NOV2013,2013-12-04,2014-06-17,12,17JUN2014,COMPLETED,COMPLETED,,19
CDISCPILOT01,01-714-1375,1375,714,900,Placebo,Placebo,0,Placebo,0,26FEB2013,07SEP2013,194,0,0,78,65-80,2,YEARS,WHITE,6,F,NOT HISPANIC OR LATINO,Y,Y,Y,Y,Y,Y,,,,25.6,25-<30,149.9,57.6,10,10FEB2008,60,>=12,23FEB2013,2013-02-26,2013-09-07,12,07SEP2013,COMPLETED,COMPLETED,,17
CDISCPILOT01,01-714-1425,1425,714,900,Xanomeline High Dose,Xanomeline High Dose,81,Xanomeline High Dose,81,15AUG2013,19AUG2013,5,54,270,81,>80,3,YEARS,WHITE,6,M,NOT HISPANIC OR LATINO,Y,Y,Y,N,N,N,Y,,,29.0,25-<30,177.8,91.6,16,30JUL2010,37,>=12,11AUG2013,2013-08-15,2013-08-22,4,22AUG2013,STUDY TERMINATED BY SPONSOR,DISCONTINUED,Sponsor Decision,22
CDISCPILOT01,01-715-1085,1085,715,900,Xanomeline Low Dose,Xanomeline Low Dose,54,Xanomeline Low Dose,54,16FEB2013,18AUG2013,184,54,9936,77,65-80,2,YEARS,WHITE,6,F,NOT HISPANIC OR LATINO,Y,Y,Y,Y,Y,Y,,,,21.8,<25,162.6,57.6,14,02AUG2010,30,>=12,03FEB2013,2013-02-16,2013-08-18,12,18AUG2013,COMPLETED,COMPLETED,,23
CDISCPILOT01,01-715-1107,1107,715,900,Xanomeline Low Dose,Xanomeline Low Dose,54,Xanomeline Low Dose,54,26FEB2013,07MAY2013,71,54,3834,65,65-80,2,YEARS,WHITE,6,M,NOT HISPANIC OR LATINO,Y,Y,Y,Y,N,N,Y,Y,,23.3,<25,172.7,69.4,12,22SEP2011,17,>=12,12FEB2013,2013-02-26,2013-05-13,9,13MAY2013,ADVERSE EVENT,DISCONTINUED,Adverse Event,23
CDISCPILOT01,01-715-1155,1155,715,900,Placebo,Placebo,0,Placebo,0,13DEC2013,25JAN2014,44,0,0,59,<65,1,YEARS,WHITE,6,F,NOT HISPANIC OR LATINO,Y,Y,N,N,N,N,Y,,,23.3,<25,165.1,63.5,12,09DEC2010,35,>=12,29NOV2013,2013-12-13,2014-04-26,7,26APR2014,WITHDRAWAL BY SUBJECT,DISCONTINUED,Withdrew Consent,10
CDISCPILOT01,01-715-1207,1207,715,900,Placebo,Placebo,0,Placebo,0,18NOV2012,27MAY2013,191,0,0,78,65-80,2,YEARS,WHITE,6,F,NOT HISPANIC OR LATINO,Y,Y,Y,Y,Y,Y,,,,21.3,<25,152.4,49.4,7,06APR2010,31,>=12,12NOV2012,2012-11-18,2013-06-01,12,01JUN2013,COMPLETED,COMPLETED,,20
CDISCPILOT01,01-715-1319,1319,715,900,Xanomeline High Dose,Xanomeline High Dose,81,Xanomeline High Dose,81,17FEB2013,05MAR2013,17,57.2,972,65,65-80,2,YEARS,WHITE,6,M,NOT HISPANIC OR LATINO,Y,Y,Y,N,N,N,Y,,,25.4,25-<30,172.7,75.8,13,12AUG2007,66,>=12,03FEB2013,2013-02-17,2013-03-18,5,18MAR2013,WITHDRAWAL BY SUBJECT,DISCONTINUED,Withdrew Consent,12
CDISCPILOT01,01-715-1321,1321,715,900,Xanomeline High Dose,Xanomeline High Dose,81,Xanomeline High Dose,81,11FEB2014,21APR2014,70,74.8,5238,75,65-80,2,YEARS,WHITE,6,F,NOT HISPANIC OR LATINO,Y,Y,Y,Y,N,N,Y,Y,,22.7,<25,162.6,59.9,12,30NOV2010,39,>=12,06FEB2014,2014-02-11,2014-04-22,9,22APR2014,ADVERSE EVENT,DISCONTINUED,Adverse Event,23
CDISCPILOT01,01-715-1397,1397,715,900,Placebo,Placebo,0,Placebo,0,03APR2013,02OCT2013,183,0,0,76,65-80,2,YEARS,WHITE,6,F,NOT HISPANIC OR LATINO,Y,Y,Y,Y,Y,Y,,,,28.9,25-<30,152.4,67.1,11,16MAY2012,10,<12,20MAR2013,2013-04-03,2013-10-03,12,03OCT2013,COMPLETED,COMPLETED,,22
CDISCPILOT01,01-715-1405,1405,715,900,Xanomeline Low Dose,Xanomeline Low Dose,54,Xanomeline Low Dose,54,06JUL2013,07JUL2013,2,54,108,69,65-80,2,YEARS,WHITE,6,M,NOT HISPANIC OR LATINO,Y,Y,Y,N,N,N,Y,Y,,21.5,<25,180.3,69.9,16,21FEB2004,112,>=12,27JUN2013,2013-07-06,2013-07-13,4,13JUL2013,ADVERSE EVENT,DISCONTINUED,Adverse Event,10
CDISCPILOT01,01-716-1024,1024,716,716,Placebo,Placebo,0,Placebo,0,09JUL2012,20JAN2013,196,0,0,87,>80,3,YEARS,WHITE,6,F,NOT HISPANIC OR LATINO,Y,Y,Y,Y,Y,Y,,,,22.7,<25,154.9,54.4,12,01DEC2011,7,<12,06JUL2012,2012-07-09,2013-01-20,12,20JAN2013,COMPLETED,COMPLETED,,22
CDISCPILOT01,01-716-1026,1026,716,716,Placebo,Placebo,0,Placebo,0,02APR2014,16OCT2014,198,0,0,73,65-80,2,YEARS,WHITE,6,F,NOT HISPANIC OR LATINO,Y,Y,Y,Y,Y,Y,,,,33.3,>=30,154.9,79.8,12,02SEP2010,42,>=12,23MAR2014,2014-04-02,2014-10-16,12,16OCT2014,COMPLETED,COMPLETED,,11
CDISCPILOT01,01-716-1030,1030,716,716,Xanomeline High Dose,Xanomeline High Dose,81,Xanomeline High Dose,81,28DEC2013,02JAN2014,6,54,324,83,>80,3,YEARS,WHITE,6,F,NOT HISPANIC OR LATINO,Y,Y,Y,N,N,N,Y,,,33.2,>=30,150.6,75.3,12,06SEP2011,27,>=12,25DEC2013,2013-12-28,2014-01-10,4,10JAN2014,WITHDRAWAL BY SUBJECT,DISCONTINUED,Withdrew Consent,16
CDISCPILOT01,01-716-1044,1044,716,716,Placebo,Placebo,0,Placebo,0,27APR2013,03NOV2013,191,0,0,74,65-80,2,YEARS,WHITE,6,M,NOT HISPANIC OR LATINO,Y,Y,Y,Y,Y,Y,,,,28.9,25-<30,172.7,86.2,12,21MAR2011,25,>=12,20APR2013,2013-04-27,2013-11-03,12,03NOV2013,COMPLETED,COMPLETED,,14
CDISCPILOT01,01-716-1063,1063,716,716,Xanomeline Low Dose,Xanomeline Low Dose,54,Xanomeline Low Dose,54,09MAY2013,25AUG2013,109,54,5886,80,65-80,2,YEARS,WHITE,6,M,NOT HISPANIC OR LATINO,Y,Y,Y,Y,Y,N,Y,Y,,28.4,25-<30,160,72.6,8,01APR2003,121,>=12,06MAY2013,2013-05-09,2013-08-28,10,28AUG2013,ADVERSE EVENT,DISCONTINUED,Adverse Event,17
CDISCPILOT01,01-716-1071,1071,716,716,Xanomeline High Dose,Xanomeline High Dose,81,Xanomeline High Dose,81,08JUN2013,01AUG2013,55,73.6,4050,78,65-80,2,YEARS,WHITE,6,F,NOT HISPANIC OR LATINO,Y,Y,Y,Y,N,N,Y,Y,,32.0,>=30,154.9,76.7,12,01DEC2010,30,>=12,03JUN2013,2013-06-08,2013-08-01,8,01AUG2013,ADVERSE EVENT,DISCONTINUED,Adverse Event,20
CDISCPILOT01,01-716-1094,1094,716,716,Xanomeline Low Dose,Xanomeline Low Dose,54,Xanomeline Low Dose,54,19DEC2012,24JAN2013,37,54,1998,82,>80,3,YEARS,WHITE,6,M,NOT HISPANIC OR LATINO,Y,Y,Y,N,N,N,Y,Y,,28.3,25-<30,168.9,80.7,8,28DEC2007,60,>=12,16DEC2012,2012-12-19,2013-01-26,7,26JAN2013,ADVERSE EVENT,DISCONTINUED,Adverse Event,11
CDISCPILOT01,01-716-1103,1103,716,716,Xanomeline Low Dose,Xanomeline Low Dose,54,Xanomeline Low Dose,54,20MAR2014,20SEP2014,185,54,9990,79,65-80,2,YEARS,WHITE,6,M,NOT HISPANIC OR LATINO,Y,Y,Y,Y,Y,Y,,,,25.6,25-<30,165.1,69.9,8,07JUL2011,32,>=12,18MAR2014,2014-03-20,2014-09-20,12,20SEP2014,COMPLETED,COMPLETED,,22
CDISCPILOT01,01-716-1108,1108,716,716,Placebo,Placebo,0,Placebo,0,12FEB2013,10AUG2013,180,0,0,86,>80,3,YEARS,WHITE,6,F,NOT HISPANIC OR LATINO,Y,Y,Y,Y,Y,Y,,,,26.0,25-<30,142.2,52.6,12,14FEB2012,12,>=12,04FEB2013,2013-02-12,2013-08-10,12,10AUG2013,COMPLETED,COMPLETED,,21
CDISCPILOT01,01-716-1151,1151,716,716,Xanomeline Low Dose,Xanomeline Low Dose,54,Xanomeline Low Dose,54,01FEB2013,11MAY2013,100,54,5400,83,>80,3,YEARS,WHITE,6,F,NOT HISPANIC OR LATINO,Y,Y,Y,Y,Y,N,Y,Y,,19.7,<25,152.4,45.8,18,17MAR2010,34,>=12,23JAN2013,2013-02-01,2013-06-07,10,07JUN2013,ADVERSE EVENT,DISCONTINUED,Adverse Event,22
CDISCPILOT01,01-716-1157,1157,716,716,Xanomeline Low Dose,Xanomeline Low Dose,54,Xanomeline Low Dose,54,02OCT2013,04APR2014,185,54,9990,85,>80,3,YEARS,WHITE,6,M,NOT HISPANIC OR LATINO,Y,Y,Y,Y,Y,Y,,,,23.2,<25,160,59.4,14,10APR2008,65,>=12,23SEP2013,2013-10-02,2014-04-05,12,05APR2014,COMPLETED,COMPLETED,,20
CDISCPILOT01,01-716-1160,1160,716,716,Placebo,Placebo,0,Placebo,0,05APR2013,11OCT2013,190,0,0,83,>80,3,YEARS,WHITE,6,F,NOT HISPANIC OR LATINO,Y,Y,Y,Y,Y,Y,,,,24.1,<25,157.5,59.9,12,04JUN2011,21,>=12,23MAR2013,2013-04-05,2013-10-11,12,11OCT2013,COMPLETED,COMPLETED,,23
CDISCPILOT01,01-716-1167,1167,716,716,Xanomeline Low Dose,Xanomeline Low Dose,54,Xanomeline Low Dose,54,08OCT2012,12APR2013,187,54,10098,68,65-80,2,YEARS,WHITE,6,M,NOT HISPANIC OR LATINO,Y,Y,Y,Y,Y,Y,,,,24.8,<25,158.8,62.6,12,04JAN2012,8,<12,30SEP2012,2012-10-08,2013-04-13,12,13APR2013,COMPLETED,COMPLETED,,19
CDISCPILOT01,01-716-1177,1177,716,716,Placebo,Placebo,0,Placebo,0,02SEP2014,05MAR2015,185,0,0,72,65-80,2,YEARS,WHITE,6,M,NOT HISPANIC OR LATINO,Y,Y,Y,Y,Y,Y,,,,27.3,25-<30,177.8,86.2,12,08APR2013,16,>=12,29AUG2014,2014-09-02,2015-03-05,12,05MAR2015,COMPLETED,COMPLETED,,21
CDISCPILOT01,01-716-1189,1189,716,716,Xanomeline High Dose,Xanomeline High Dose,81,Xanomeline High Dose,81,09OCT2012,27FEB2013,142,78,11070,81,>80,3,YEARS,WHITE,6,M,NOT HISPANIC OR LATINO,Y,Y,Y,Y,Y,N,Y,Y,,27.4,25-<30,163.8,73.5,9,19AUG2008,50,>=12,07OCT2012,2012-10-09,2013-03-03,11,03MAR2013,ADVERSE EVENT,DISCONTINUED,Adverse Event,21
CDISCPILOT01,01-716-1229,1229,716,716,Xanomeline High Dose,Xanomeline High Dose,81,Xanomeline High Dose,81,20FEB2013,31MAR2013,40,70.9,2835,73,65-80,2,YEARS,WHITE,6,F,NOT HISPANIC OR LATINO,Y,Y,Y,N,N,N,Y,Y,,24.6,<25,161.3,64,16,09AUG2011,18,>=12,14FEB2013,2013-02-20,2013-04-02,7,02APR2013,ADVERSE EVENT,DISCONTINUED,Adverse Event,22
CDISCPILOT01,01-716-1298,1298,716,716,Xanomeline Low Dose,Xanomeline Low Dose,54,Xanomeline Low Dose,54,08APR2013,28JUN2013,82,54,4428,76,65-80,2,YEARS,WHITE,6,F,NOT HISPANIC OR LATINO,Y,Y,Y,Y,N,N,Y,Y,,29.4,25-<30,156.2,71.7,12,15MAY2008,59,>=12,04APR2013,2013-04-08,2013-07-06,9,06JUL2013,ADVERSE EVENT,DISCONTINUED,Adverse Event,11
CDISCPILOT01,01-716-1308,1308,716,716,Placebo,Placebo,0,Placebo,0,28AUG2013,07OCT2013,41,0,0,76,65-80,2,YEARS,WHITE,6,F,NOT HISPANIC OR LATINO,Y,Y,Y,N,N,N,Y,,,23.6,<25,157.5,58.5,13,17NOV2009,45,>=12,23AUG2013,2013-08-28,2013-10-07,7,07OCT2013,WITHDRAWAL BY SUBJECT,DISCONTINUED,Withdrew Consent,13
CDISCPILOT01,01-716-1311,1311,716,716,Xanomeline Low Dose,Xanomeline Low Dose,54,Xanomeline Low Dose,54,14MAY2014,21SEP2014,131,54,7074,78,65-80,2,YEARS,WHITE,6,M,NOT HISPANIC OR LATINO,Y,Y,Y,Y,Y,N,Y,,,27.1,25-<30,172.7,80.7,14,16JUN2003,131,>=12,08MAY2014,2014-05-14,2014-09-30,11,30SEP2014,WITHDRAWAL BY SUBJECT,DISCONTINUED,Withdrew Consent,11
CDISCPILOT01,01-716-1364,1364,716,716,Xanomeline High Dose,Xanomeline High Dose,81,Xanomeline High Dose,81,04JUL2013,09JAN2014,190,76.6,14553,84,>80,3,YEARS,WHITE,6,F,NOT HISPANIC OR LATINO,Y,Y,Y,Y,Y,Y,,,,20.4,<25,162.6,54,12,10AUG2010,34,>=12,27JUN2013,2013-07-04,2014-01-09,12,09JAN2014,COMPLETED,COMPLETED,,17
CDISCPILOT01,01-716-1373,1373,716,716,Xanomeline High Dose,Xanomeline High Dose,81,Xanomeline High Dose,81,14DEC2012,27FEB2013,76,75,5697,74,65-80,2,YEARS,WHITE,6,M,NOT HISPANIC OR LATINO,Y,Y,Y,Y,N,N,Y,Y,,32.0,>=30,147.3,69.4,16,21MAY2009,42,>=12,24NOV2012,2012-12-14,2013-02-28,9,28FEB2013,ADVERSE EVENT,DISCONTINUED,Adverse Event,23
CDISCPILOT01,01-716-1418,1418,716,716,Xanomeline High Dose,Xanomeline High Dose,81,Xanomeline High Dose,81,05MAY2013,20NOV2013,200,77.1,15417,80,65-80,2,YEARS,WHITE,6,F,NOT HISPANIC OR LATINO,Y,Y,Y,Y,Y,Y,,,,25.3,25-<30,165.1,69,8,02MAY2010,35,>=12,27APR2013,2013-05-05,2013-11-20,12,20NOV2013,COMPLETED,COMPLETED,,20
CDISCPILOT01,01-716-1441,1441,716,716,Placebo,Placebo,0,Placebo,0,22JAN2014,22JUL2014,182,0,0,85,>80,3,YEARS,WHITE,6,M,NOT HISPANIC OR LATINO,Y,Y,Y,Y,Y,Y,,,,27.5,25-<30,144.8,57.6,10,25MAY2010,44,>=12,13JAN2014,2014-01-22,2014-07-22,12,22JUL2014,COMPLETED,COMPLETED,,22
CDISCPILOT01,01-716-1447,1447,716,716,Xanomeline High Dose,Xanomeline High Dose,81,Xanomeline High Dose,81,16DEC2013,17JUN2014,184,77.2,14202,72,65-80,2,YEARS,WHITE,6,F,NOT HISPANIC OR LATINO,Y,Y,Y,Y,Y,Y,,,,24.2,<25,149.9,54.4,14,15MAY2010,43,>=12,10DEC2013,2013-12-16,2014-06-17,12,17JUN2014,COMPLETED,COMPLETED,,22
CDISCPILOT01,01-717-1004,1004,717,900,Xanomeline Low Dose,Xanomeline Low Dose,54,Xanomeline Low Dose,54,14JAN2014,16JUL2014,184,54,9936,80,65-80,2,YEARS,WHITE,6,F,NOT HISPANIC OR LATINO,Y,Y,Y,Y,Y,Y,,,,30.2,>=30,135.9,55.8,15,08MAY2010,44,>=12,01JAN2014,2014-01-14,2014-07-16,12,16JUL2014,COMPLETED,COMPLETED,,13
CDISCPILOT01,01-717-1109,1109,717,900,Xanomeline High Dose,Xanomeline High Dose,81,Xanomeline High Dose,81,27JAN2014,28JUL2014,183,77.3,14148,84,>80,3,YEARS,WHITE,6,M,NOT HISPANIC OR LATINO,Y,Y,Y,Y,Y,Y,,,,13.7,<25,180.3,44.5,17,11MAR2012,22,>=12,20JAN2014,2014-01-27,2014-07-28,12,28JUL2014,COMPLETED,COMPLETED,,20
CDISCPILOT01,01-717-1174,1174,717,900,Xanomeline High Dose,Xanomeline High Dose,81,Xanomeline High Dose,81,22JAN2013,24JUL2013,184,76.5,14067,73,65-80,2,YEARS,WHITE,6,M,NOT HISPANIC OR LATINO,Y,Y,Y,Y,Y,Y,,,,24.2,<25,167.6,68,16,02SEP2010,28,>=12,16JAN2013,2013-01-22,2013-07-24,12,24JUL2013,COMPLETED,COMPLETED,,22
CDISCPILOT01,01-717-1201,1201,717,900,Placebo,Placebo,0,Placebo,0,19DEC2013,21FEB2014,65,0,0,85,>80,3,YEARS,WHITE,6,F,NOT HISPANIC OR LATINO,Y,Y,Y,Y,N,N,Y,,,26.6,25-<30,160,68,12,23MAR2011,33,>=12,12DEC2013,2013-12-19,2014-02-21,8,21FEB2014,LACK OF EFFICACY,DISCONTINUED,Lack of Efficacy,23
CDISCPILOT01,01-717-1344,1344,717,900,Placebo,Placebo,0,Placebo,0,11JAN2014,14MAR2014,63,0,0,64,<65,1,YEARS,WHITE,6,F,NOT HISPANIC OR LATINO,Y,Y,Y,Y,N,N,Y,,,21.7,<25,163.5,58.1,16,10SEP2008,64,>=12,01JAN2014,2014-01-11,2014-03-14,8,14MAR2014,LACK OF EFFICACY,DISCONTINUED,Lack of Efficacy,21
CDISCPILOT01,01-717-1357,1357,717,900,Xanomeline High Dose,Xanomeline High Dose,81,Xanomeline High Dose,81,01MAY2013,14OCT2013,167,78.6,13122,77,65-80,2,YEARS,WHITE,6,M,NOT HISPANIC OR LATINO,Y,Y,Y,Y,Y,Y,Y,,,24.7,<25,181.6,81.3,14,20FEB2010,38,>=12,21APR2013,2013-05-01,2013-10-20,12,20OCT2013,STUDY TERMINATED BY SPONSOR,DISCONTINUED,Sponsor Decision,12
CDISCPILOT01,01-717-1446,1446,717,900,Xanomeline Low Dose,Xanomeline Low Dose,54,Xanomeline Low Dose,54,01SEP2013,03MAR2014,184,54,9936,75,65-80,2,YEARS,WHITE,6,F,NOT HISPANIC OR LATINO,Y,Y,Y,Y,Y,Y,,,,19.3,<25,156.2,47.2,12,10FEB2010,42,>=12,20AUG2013,2013-09-01,2014-03-04,12,04MAR2014,COMPLETED,COMPLETED,,21
CDISCPILOT01,01-718-1066,1066,718,718,Xanomeline Low Dose,Xanomeline Low Dose,54,Xanomeline Low Dose,54,07JUL2013,16JUL2013,10,54,540,79,65-80,2,YEARS,WHITE,6,F,NOT HISPANIC OR LATINO,Y,Y,Y,N,N,N,Y,Y,,20.0,<25,158.8,50.4,14,02JUN2011,24,>=12,28JUN2013,2013-07-07,2013-07-30,4,30JUL2013,ADVERSE EVENT,DISCONTINUED,Adverse Event,20
CDISCPILOT01,01-718-1079,1079,718,718,Xanomeline Low Dose,Xanomeline Low Dose,54,Xanomeline Low Dose,54,19SEP2012,31OCT2012,43,54,2322,67,65-80,2,YEARS,WHITE,6,F,NOT HISPANIC OR LATINO,Y,Y,Y,N,N,N,Y,Y,,20.0,<25,158.8,50.4,16,27JUN2005,87,>=12,11SEP2012,2012-09-19,2012-11-06,7,06NOV2012,ADVERSE EVENT,DISCONTINUED,Adverse Event,17
CDISCPILOT01,01-718-1101,1101,718,718,Xanomeline High Dose,Xanomeline High Dose,81,Xanomeline High Dose,81,17FEB2013,31JUL2013,165,78.5,12960,82,>80,3,YEARS,BLACK OR AFRICAN AMERICAN,3,M,NOT HISPANIC OR LATINO,Y,Y,Y,Y,Y,Y,Y,,,23.2,<25,186.2,80.3,12,14APR2008,58,>=12,01FEB2013,2013-02-17,2013-08-02,12,02AUG2013,STUDY TERMINATED BY SPONSOR,DISCONTINUED,Sponsor Decision,13
CDISCPILOT01,01-718-1139,1139,718,718,Placebo,Placebo,0,Placebo,0,19MAY2013,17NOV2013,183,0,0,77,65-80,2,YEARS,WHITE,6,M,NOT HISPANIC OR LATINO,Y,Y,Y,Y,Y,Y,,,,22.4,<25,171.5,65.8,14,29MAR2008,62,>=12,03MAY2013,2013-05-19,2013-11-17,12,17NOV2013,COMPLETED,COMPLETED,,16
CDISCPILOT01,01-718-1150,1150,718,718,Placebo,Placebo,0,Placebo,0,19JAN2013,29JUL2013,192,0,0,73,65-80,2,YEARS,WHITE,6,F,NOT HISPANIC OR LATINO,Y,Y,Y,Y,Y,Y,,,,22.5,<25,156.2,54.9,16,11MAR2012,10,<12,12JAN2013,2013-01-19,2013-07-31,12,31JUL2013,COMPLETED,COMPLETED,,22
CDISCPILOT01,01-718-1170,1170,718,718,Xanomeline Low Dose,Xanomeline Low Dose,54,Xanomeline Low Dose,54,16SEP2013,12OCT2013,27,54,1458,80,65-80,2,YEARS,WHITE,6,F,NOT HISPANIC OR LATINO,Y,Y,Y,N,N,N,Y,Y,,21.8,<25,162.6,57.6,12,25AUG2012,12,>=12,25AUG2013,2013-09-16,2013-11-03,5,03NOV2013,ADVERSE EVENT,DISCONTINUED,Adverse Event,19
CDISCPILOT01,01-718-1172,1172,718,718,Placebo,Placebo,0,Placebo,0,21SEP2013,29NOV2013,70,0,0,74,65-80,2,YEARS,WHITE,6,M,NOT HISPANIC OR LATINO,Y,Y,Y,Y,N,N,Y,,,21.9,<25,174,66.2,21,01OCT2011,23,>=12,15SEP2013,2013-09-21,2013-11-29,9,29NOV2013,WITHDRAWAL BY SUBJECT,DISCONTINUED,Withdrew Consent,10
CDISCPILOT01,01-718-1250,1250,718,718,Xanomeline Low Dose,Xanomeline Low Dose,54,Xanomeline Low Dose,54,21SEP2013,31JAN2014,133,54,7182,82,>80,3,YEARS,WHITE,6,F,HISPANIC OR LATINO,Y,Y,Y,Y,Y,N,Y,Y,,23.6,<25,157.5,58.5,21,20AUG2008,60,>=12,21AUG2013,2013-09-21,2014-02-08,11,08FEB2014,ADVERSE EVENT,DISCONTINUED,Adverse Event,18
CDISCPILOT01,01-718-1254,1254,718,718,Xanomeline Low Dose,Xanomeline Low Dose,54,Xanomeline Low Dose,54,10JUL2013,09JAN2014,184,54,9936,78,65-80,2,YEARS,WHITE,6,M,HISPANIC OR LATINO,Y,Y,Y,Y,Y,Y,,,,28.3,25-<30,170.2,82.1,18,12SEP2011,21,>=12,28JUN2013,2013-07-10,2014-01-09,12,09JAN2014,COMPLETED,COMPLETED,,16
CDISCPILOT01,01-718-1328,1328,718,718,Xanomeline High Dose,Xanomeline High Dose,81,Xanomeline High Dose,81,01FEB2013,18APR2013,77,76.1,5859,86,>80,3,YEARS,WHITE,6,M,NOT HISPANIC OR LATINO,Y,Y,Y,Y,N,N,Y,,,21.9,<25,170.2,63.5,12,11JAN2010,36,>=12,28JAN2013,2013-02-01,2013-05-01,9,01MAY2013,WITHDRAWAL BY SUBJECT,DISCONTINUED,Withdrew Consent,13
CDISCPILOT01,01-718-1355,1355,718,718,Placebo,Placebo,0,Placebo,0,28FEB2013,29AUG2013,183,0,0,79,65-80,2,YEARS,WHITE,6,M,NOT HISPANIC OR LATINO,Y,Y,Y,Y,Y,Y,,,,20.8,<25,167.6,58.5,15,05DEC2008,50,>=12,12FEB2013,2013-02-28,2013-08-29,12,29AUG2013,COMPLETED,COMPLETED,,16
CDISCPILOT01,01-718-1371,1371,718,718,Xanomeline High Dose,Xanomeline High Dose,81,Xanomeline High Dose,81,26APR2013,01AUG2013,98,77.4,7587,69,65-80,2,YEARS,WHITE,6,F,NOT HISPANIC OR LATINO,Y,Y,Y,Y,N,N,Y,Y,,27.8,25-<30,154.9,66.7,10,04FEB2013,2,<12,11APR2013,2013-04-26,2013-08-08,9,08AUG2013,ADVERSE EVENT,DISCONTINUED,Adverse Event,16
CDISCPILOT01,01-718-1427,1427,718,718,Xanomeline High Dose,Xanomeline High Dose,81,Xanomeline High Dose,81,17DEC2012,11FEB2013,57,73.9,4212,74,65-80,2,YEARS,BLACK OR AFRICAN AMERICAN,3,F,NOT HISPANIC OR LATINO,Y,Y,Y,Y,N,N,Y,,,20.5,<25,158.8,51.7,16,03MAY2010,31,>=12,13DEC2012,2012-12-17,2013-02-18,8,18FEB2013,LACK OF EFFICACY,DISCONTINUED,Lack of Efficacy,19
